{
  "comment" : "N.B! This is based on SDTMIG3.2, but not all domains are listed. The domains exist in excel file with metadata, but without sort order.",
  "domain_sort_order" : {
    "DM": "STUDYID,USUBJID",
    "CO": "STUDYID,USUBJID,COSEQ",
    "SE": "STUDYID,USUBJID,ETCD,SESTDTC",
    "SV": "STUDYID,USUBJID,VISITNUM",
    "CM": "STUDYID,USUBJID,CMTRT,CMSTDTC",
    "EX": "STUDYID,USUBJID,EXTRT,EXSTDTC",
    "SU": "STUDYID,USUBJID,SUTRT,SUSTDTC",
    "AE": "STUDYID,USUBJID,AEDECOD,AESTDTC",
    "DS": "STUDYID,USUBJID,DSDECOD,DSSTDTC",
    "MH": "STUDYID,USUBJID,MHDECOD",
    "DV": "STUDYID,USUBJID,DVTERM,DVSTDTC",
    "CE": "STUDYID,USUBJID,CETERM,CESTDTC",
    "EG": "STUDYID,USUBJID,EGTESTCD,VISITNUM,EGTPTREF,EGTPTNUM",
    "IE": "STUDYID,USUBJID,IETESTCD",
    "LB": "STUDYID,USUBJID,LBTESTCD,LBSPEC,VISITNUM,LBTPTREF,LBTPTNUM",
    "PE": "STUDYID,USUBJID,PETESTCD,VISITNUM",
    "QS": "STUDYID,USUBJID,QSCAT,QSTESTCD,VISITNUM,QSTPTREF,QSTPTNUM",
    "SC": "STUDYID,USUBJID,SCTESTCD",
    "VS": "STUDYID,USUBJID,VSTESTCD,VISITNUM,VSTPTREF,VSTPTNUM",
    "DA": "STUDYID,USUBJID,DATESTCD,DADTC",
    "MB": "STUDYID,USUBJID,MBTESTCD,VISITNUM,MBTPTREF,MBTPTNUM",
    "MS": "STUDYID,USUBJID,MSTESTCD,VISITNUM,MSTPTREF,MSTPTNUM",
    "PC": "STUDYID,USUBJID,PCTESTCD,VISITNUM,PCTPTREF,PCTPTNUM",
    "PP": "STUDYID,USUBJID,PPTESTCD,PPCAT,VISITNUM,PPTPTREF",
    "FA": "STUDYID,USUBJID,FATESTCD,FAOBJ,VISITNUM,FATPTREF,FATPTNUM",
    "TA": "STUDYID,ARMCD,TAETORD",
    "TE": "STUDYID,ETCD",
    "TV": "STUDYID,VISITNUM,ARMCD",
    "TI": "STUDYID,IETESTCD",
    "TS": "STUDYID,TSPARMCD,TSSEQ",
    "RELREC": "STUDYID,RDOMAIN,USUBJID,IDVAR,IDVARVAL,RELID",
    "SUPP--": "STUDYID,RDOMAIN,USUBJID,IDVAR,IDVARVAL,QNAM"
  }
}
