"Version","Variable Order","Class","Dataset Name","Variable Name","Variable Label","Type","CDISC CT Codelist Code(s)","Described Value Domain(s)","Value List","Role","CDISC Notes","Core"
"SDTMIG v3.2","1","Special-Purpose","CO","STUDYID","Study Identifier","Char","",,"","Identifier","Unique identifier for a study.","Req"
"SDTMIG v3.2","2","Special-Purpose","CO","DOMAIN","Domain Abbreviation","Char","",,"CO","Identifier","Two-character abbreviation for the domain.","Req"
"SDTMIG v3.2","3","Special-Purpose","CO","RDOMAIN","Related Domain Abbreviation","Char","",,"","Record Qualifier","Two-character abbreviation for the domain of the parent record(s). Null for comments collected on a general comments or additional information CRF page.","Perm"
"SDTMIG v3.2","4","Special-Purpose","CO","USUBJID","Unique Subject Identifier","Char","",,"","Identifier","Identifier used to uniquely identify a subject across all studies for all applications or submissions involving the product.","Req"
"SDTMIG v3.2","5","Special-Purpose","CO","COSEQ","Sequence Number","Num","",,"","Identifier","Sequence Number given to ensure uniqueness of subject records within a domain. May be any valid number.","Req"
"SDTMIG v3.2","6","Special-Purpose","CO","IDVAR","Identifying Variable","Char","",,"","Record Qualifier","Identifying variable in the parent dataset that identifies the record(s) to which the comment applies. Examples AESEQ or CMGRPID. Used only when individual comments are related to domain records. Null for comments collected on separate CRFs.","Perm"
"SDTMIG v3.2","7","Special-Purpose","CO","IDVARVAL","Identifying Variable Value","Char","",,"","Record Qualifier","Value of identifying variable of the parent record(s). Used only when individual comments are related to domain records. Null for comments collected on separate CRFs.","Perm"
"SDTMIG v3.2","8","Special-Purpose","CO","COREF","Comment Reference","Char","",,"","Record Qualifier","Sponsor-defined reference associated with the comment. May be the CRF page number (e.g. 650), or a module name (e.g. DEMOG), or a combination of information that identifies the reference (e.g. 650-VITALS-VISIT 2).","Perm"
"SDTMIG v3.2","9","Special-Purpose","CO","COVAL","Comment","Char","",,"","Topic","The text of the comment. Text over 200 characters can be added to additional columns COVAL1-COVALn. See Assumption 3.","Req"
"SDTMIG v3.2","10","Special-Purpose","CO","COEVAL","Evaluator","Char","",,"","Record Qualifier","Used to describe the originator of the comment. Examples: CENTRAL, REVIEWER, ADJUDICATION COMMITTEE, PRINCIPAL INVESTIGATOR.","Perm"
"SDTMIG v3.2","11","Special-Purpose","CO","CODTC","Date/Time of Comment","Char","","ISO 8601","","Timing","Date/time of comment on dedicated comment form. Should be null if this is a child record of another domain or if comment date was not collected.","Perm"
"SDTMIG v3.2","1","Special-Purpose","DM","STUDYID","Study Identifier","Char","",,"","Identifier","Unique identifier for a study.","Req"
"SDTMIG v3.2","2","Special-Purpose","DM","DOMAIN","Domain Abbreviation","Char","",,"DM","Identifier","Two-character abbreviation for the domain.","Req"
"SDTMIG v3.2","3","Special-Purpose","DM","USUBJID","Unique Subject Identifier","Char","",,"","Identifier","Identifier used to uniquely identify a subject across all studies for all applications or submissions involving the product. This must be a unique number, and could be a compound identifier formed by concatenating STUDYID-SITEID-SUBJID.","Req"
"SDTMIG v3.2","4","Special-Purpose","DM","SUBJID","Subject Identifier for the Study","Char","",,"","Topic","Subject identifier, which must be unique within the study. Often the ID of the subject as recorded on a CRF.","Req"
"SDTMIG v3.2","5","Special-Purpose","DM","RFSTDTC","Subject Reference Start Date/Time","Char","","ISO 8601","","Record Qualifier","Reference Start Date/time for the subject in ISO 8601 character format. Usually equivalent to date/time when subject was first exposed to study treatment. Required for all randomized subjects; will be null for all subjects who did not meet the milestone the date requires, such as screen failures or unassigned subjects.","Exp"
"SDTMIG v3.2","6","Special-Purpose","DM","RFENDTC","Subject Reference End Date/Time","Char","","ISO 8601","","Record Qualifier","Reference End Date/time for the subject in ISO 8601 character format. Usually equivalent to the date/time when subject was determined to have ended the trial, and often equivalent to date/time of last exposure to study treatment. Required for all randomized subjects; null for screen failures or unassigned subjects.","Exp"
"SDTMIG v3.2","7","Special-Purpose","DM","RFXSTDTC","Date/Time of First Study Treatment","Char","","ISO 8601","","Record Qualifier","First date of exposure to any protocol-specified treatment or therapy, equal to the earliest value of EXSTDTC.","Exp"
"SDTMIG v3.2","8","Special-Purpose","DM","RFXENDTC","Date/Time of Last Study Treatment","Char","","ISO 8601","","Record Qualifier","Last date of exposure to any protocol-specified treatment or therapy, equal to the latest value of EXENDTC (or the latest value of EXSTDTC if EXENDTC was not collected or is missing).","Exp"
"SDTMIG v3.2","9","Special-Purpose","DM","RFICDTC","Date/Time of Informed Consent","Char","","ISO 8601","","Record Qualifier","Date/time of informed consent in ISO 8601 character format. This will be the same as the date of informed consent in the Disposition domain, if that protocol milestone is documented. Would be null only in studies not collecting the date of informed consent.","Exp"
"SDTMIG v3.2","10","Special-Purpose","DM","RFPENDTC","Date/Time of End of Participation","Char","","ISO 8601","","Record Qualifier","Date/time when subject ended participation or follow-up in a trial, as defined in the protocol, in ISO 8601 character format. Should correspond to the last known date of contact. Examples include completion date, withdrawal date, last follow-up, date recorded for lost to follow up, or death date.","Exp"
"SDTMIG v3.2","11","Special-Purpose","DM","DTHDTC","Date/Time of Death","Char","","ISO 8601","","Record Qualifier","Date/time of death for any subject who died, in ISO 8601 format. Should represent the date/time that is captured in the clinical-trial database.","Exp"
"SDTMIG v3.2","12","Special-Purpose","DM","DTHFL","Subject Death Flag","Char","C66742",,"","Record Qualifier","Indicates the subject died. Should be Y or null. Should be populated even when the death date is unknown.","Exp"
"SDTMIG v3.2","13","Special-Purpose","DM","SITEID","Study Site Identifier","Char","",,"","Record Qualifier","Unique identifier for a site within a study.","Req"
"SDTMIG v3.2","14","Special-Purpose","DM","INVID","Investigator Identifier","Char","",,"","Record Qualifier","An identifier to describe the Investigator for the study. May be used in addition to SITEID. Not needed if SITEID is equivalent to INVID.","Perm"
"SDTMIG v3.2","15","Special-Purpose","DM","INVNAM","Investigator Name","Char","",,"","Synonym Qualifier","Name of the investigator for a site.","Perm"
"SDTMIG v3.2","16","Special-Purpose","DM","BRTHDTC","Date/Time of Birth","Char","","ISO 8601","","Record Qualifier","Date/time of birth of the subject.","Perm"
"SDTMIG v3.2","17","Special-Purpose","DM","AGE","Age","Num","",,"","Record Qualifier","Age expressed in AGEU. May be derived from RFSTDTC and BRTHDTC, but BRTHDTC may not be available in all cases (due to subject privacy concerns).","Exp"
"SDTMIG v3.2","18","Special-Purpose","DM","AGEU","Age Units","Char","C66781",,"","Variable Qualifier","Units associated with AGE.","Exp"
"SDTMIG v3.2","19","Special-Purpose","DM","SEX","Sex","Char","C66731",,"","Record Qualifier","Sex of the subject.","Req"
"SDTMIG v3.2","20","Special-Purpose","DM","RACE","Race","Char","C74457",,"","Record Qualifier","Race of the subject. Sponsors should refer to ""Collection of Race and Ethnicity Data in Clinical Trials"" (FDA, September 2005) for guidance regarding the collection of race (http://www.fda.gov/RegulatoryInformation/Guidances/ucm126340.htm) See Assumption below regarding RACE.","Exp"
"SDTMIG v3.2","21","Special-Purpose","DM","ETHNIC","Ethnicity","Char","C66790",,"","Record Qualifier","The ethnicity of the subject. Sponsors should refer to ""Collection of Race and Ethnicity Data in Clinical Trials"" (FDA, September 2005) for guidance regarding the collection of ethnicity (http://www.fda.gov/RegulatoryInformation/Guidances/ucm126340.htm).","Perm"
"SDTMIG v3.2","22","Special-Purpose","DM","ARMCD","Planned Arm Code","Char","",,"","Record Qualifier","ARMCD is limited to 20 characters and does not have special character restrictions. The maximum length of ARMCD is longer than for other ""short"" variables to accommodate the kind of values that are likely to be needed for crossover trials. For example, if ARMCD values for a seven-period crossover were constructed using two-character abbreviations for each treatment and separating hyphens, the length of ARMCD values would be 20.","Req"
"SDTMIG v3.2","23","Special-Purpose","DM","ARM","Description of Planned Arm","Char","",,"","Synonym Qualifier","Name of the Arm to which the subject was assigned.","Req"
"SDTMIG v3.2","24","Special-Purpose","DM","ACTARMCD","Actual Arm Code","Char","",,"","Record Qualifier","Code of actual Arm. When an Arm is not planned (not in Trial Arms), ACTARMCD will be UNPLAN. Randomized subjects who were not treated will be given a value of NOTTRT. Values should be ""SCRNFAIL"" for screen failures and ""NOTASSGN"" for subjects not assigned to treatment. Restricted to values in Trial Arms in all other cases. ACTARMCD is limited to 20 characters and does not have special character restrictions. The maximum length of ACTARMCD is longer than for other short variables to accommodate the kind of values that are likely to be needed for crossover trials.","Req"
"SDTMIG v3.2","25","Special-Purpose","DM","ACTARM","Description of Actual Arm","Char","",,"","Synonym Qualifier","Description of actual Arm. When an Arm is not planned (not in Trial Arms), ACTARM will be ""Unplanned Treatment"". Randomized subjects who were not treated will be given a value of ""Not Treated"". Values should be ""Screen Failure"" for screen failures and ""Not Assigned"" for subjects not assigned to treatment. Restricted to values in Trial Arms in all other cases.","Req"
"SDTMIG v3.2","26","Special-Purpose","DM","COUNTRY","Country","Char","","ISO 3166-1 Alpha-3","","Record Qualifier","Country of the investigational site in which the subject participated in the trial.","Req"
"SDTMIG v3.2","27","Special-Purpose","DM","DMDTC","Date/Time of Collection","Char","","ISO 8601","","Timing","Date/time of demographic data collection.","Perm"
"SDTMIG v3.2","28","Special-Purpose","DM","DMDY","Study Day of Collection","Num","",,"","Timing","Study day of collection measured as integer days.","Perm"
"SDTMIG v3.2","1","Special-Purpose","SE","STUDYID","Study Identifier","Char","",,"","Identifier","Unique identifier for a study.","Req"
"SDTMIG v3.2","2","Special-Purpose","SE","DOMAIN","Domain Abbreviation","Char","",,"SE","Identifier","Two-character abbreviation for the domain.","Req"
"SDTMIG v3.2","3","Special-Purpose","SE","USUBJID","Unique Subject Identifier","Char","",,"","Identifier","Identifier used to uniquely identify a subject across all studies for all applications or submissions involving the product.","Req"
"SDTMIG v3.2","4","Special-Purpose","SE","SESEQ","Sequence Number","Num","",,"","Identifier","Sequence Number given to ensure uniqueness of subject records within a domain. Should be assigned to be consistent chronological order.","Req"
"SDTMIG v3.2","5","Special-Purpose","SE","ETCD","Element Code","Char","",,"","Topic","1. ETCD (the companion to ELEMENT) is limited to 8 characters and does not have special character restrictions. These values should be short for ease of use in programming, but it is not expected that ETCD will need to serve as a variable name. 2. If an encountered Element differs from the planned Element to the point that it is considered a new Element, then use ""UNPLAN"" as the value for ETCD to represent this Element.","Req"
"SDTMIG v3.2","6","Special-Purpose","SE","ELEMENT","Description of Element","Char","",,"","Synonym Qualifier","The name of the Element. If ETCD has a value of ""UNPLAN"" then ELEMENT should be Null.","Perm"
"SDTMIG v3.2","7","Special-Purpose","SE","SESTDTC","Start Date/Time of Element","Char","","ISO 8601","","Timing","Start date/time for an Element for each subject.","Req"
"SDTMIG v3.2","8","Special-Purpose","SE","SEENDTC","End Date/Time of Element","Char","","ISO 8601","","Timing","End date/time for an Element for each subject.","Exp"
"SDTMIG v3.2","9","Special-Purpose","SE","TAETORD","Planned Order of Element within Arm","Num","",,"","Timing","Number that gives the planned order of the Element within the subject's assigned ARM.","Perm"
"SDTMIG v3.2","10","Special-Purpose","SE","EPOCH","Epoch","Char","C99079",,"","Timing","Epoch associated with the Element in the planned sequence of Elements for the ARM to which the subject was assigned","Perm"
"SDTMIG v3.2","11","Special-Purpose","SE","SEUPDES","Description of Unplanned Element","Char","",,"","Synonym Qualifier","Description of what happened to the subject during this unplanned Element. Used only if ETCD has the value of ""UNPLAN"".","Perm"
"SDTMIG v3.2","1","Special-Purpose","SV","STUDYID","Study Identifier","Char","",,"","Identifier","Unique identifier for a study.","Req"
"SDTMIG v3.2","2","Special-Purpose","SV","DOMAIN","Domain Abbreviation","Char","",,"SV","Identifier","Two-character abbreviation for the domain.","Req"
"SDTMIG v3.2","3","Special-Purpose","SV","USUBJID","Unique Subject Identifier","Char","",,"","Identifier","Identifier used to uniquely identify a subject across all studies for all applications or submissions involving the product.","Req"
"SDTMIG v3.2","4","Special-Purpose","SV","VISITNUM","Visit Number","Num","",,"","Topic","1. Clinical encounter number. (Decimal numbering may be useful for inserting unplanned visits.) 2. Numeric version of VISIT, used for sorting.","Req"
"SDTMIG v3.2","5","Special-Purpose","SV","VISIT","Visit Name","Char","",,"","Synonym Qualifier","1. Protocol-defined description of clinical encounter. 2. May be used in addition to VISITNUM and/or VISITDY as a text description of the clinical encounter.","Perm"
"SDTMIG v3.2","6","Special-Purpose","SV","VISITDY","Planned Study Day of Visit","Num","",,"","Timing","Planned study day of the start of the visit based upon RFSTDTC in Demographics.","Perm"
"SDTMIG v3.2","7","Special-Purpose","SV","SVSTDTC","Start Date/Time of Visit","Char","","ISO 8601","","Timing","Start date/time for a Visit.","Exp"
"SDTMIG v3.2","8","Special-Purpose","SV","SVENDTC","End Date/Time of Visit","Char","","ISO 8601","","Timing","End date/time of a Visit.","Exp"
"SDTMIG v3.2","9","Special-Purpose","SV","SVSTDY","Study Day of Start of Visit","Num","",,"","Timing","Study day of start of visit relative to the sponsor-defined RFSTDTC.","Perm"
"SDTMIG v3.2","10","Special-Purpose","SV","SVENDY","Study Day of End of Visit","Num","",,"","Timing","Study day of end of visit relative to the sponsor-defined RFSTDTC.","Perm"
"SDTMIG v3.2","11","Special-Purpose","SV","SVUPDES","Description of Unplanned Visit","Char","",,"","Synonym Qualifier","Description of what happened to the subject during an unplanned visit.","Perm"
"SDTMIG v3.2","1","Interventions","CM","STUDYID","Study Identifier","Char","",,"","Identifier","Unique identifier for a study.","Req"
"SDTMIG v3.2","2","Interventions","CM","DOMAIN","Domain Abbreviation","Char","",,"CM","Identifier","Two-character abbreviation for the domain.","Req"
"SDTMIG v3.2","3","Interventions","CM","USUBJID","Unique Subject Identifier","Char","",,"","Identifier","Identifier used to uniquely identify a subject across all studies for all applications or submissions involving the product.","Req"
"SDTMIG v3.2","4","Interventions","CM","CMSEQ","Sequence Number","Num","",,"","Identifier","Sequence Number given to ensure uniqueness of subject records within a domain. May be any valid number.","Req"
"SDTMIG v3.2","5","Interventions","CM","CMGRPID","Group ID","Char","",,"","Identifier","Used to tie together a block of related records in a single domain for a subject.","Perm"
"SDTMIG v3.2","6","Interventions","CM","CMSPID","Sponsor-Defined Identifier","Char","",,"","Identifier","Sponsor-defined reference number. Examples: a number pre-printed on the CRF as an explicit line identifier or record identifier defined in the sponsor's operational database. Example: line number on a concomitant medication page.","Perm"
"SDTMIG v3.2","7","Interventions","CM","CMTRT","Reported Name of Drug, Med, or Therapy","Char","",,"","Topic","Verbatim medication name that is either pre-printed or collected on a CRF.","Req"
"SDTMIG v3.2","8","Interventions","CM","CMMODIFY","Modified Reported Name","Char","",,"","Synonym Qualifier","If CMTRT is modified to facilitate coding, then CMMODIFY will contain the modified text.","Perm"
"SDTMIG v3.2","9","Interventions","CM","CMDECOD","Standardized Medication Name","Char","",,"","Synonym Qualifier","Standardized or dictionary-derived text description of CMTRT or CMMODIFY. Equivalent to the generic medication name in WHO Drug. The sponsor is expected to provide the dictionary name and version used to map the terms utilizing the define.xml external codelist attributes. If an intervention term does not have a decode value in the dictionary then CMDECOD will be left blank.","Perm"
"SDTMIG v3.2","10","Interventions","CM","CMCAT","Category for Medication","Char","",,"","Grouping Qualifier","Used to define a category of medications/treatments. Examples: PRIOR, CONCOMITANT, ANTI-CANCER MEDICATION, or GENERAL CONMED.","Perm"
"SDTMIG v3.2","11","Interventions","CM","CMSCAT","Subcategory for Medication","Char","",,"","Grouping Qualifier","A further categorization of medications/ treatment. Examples: CHEMOTHERAPY, HORMONAL THERAPY, ALTERNATIVE THERAPY.","Perm"
"SDTMIG v3.2","12","Interventions","CM","CMPRESP","CM Pre-Specified","Char","C66742",,"","Variable Qualifier","Used to indicate whether (Y/null) information about the use of a specific medication was solicited on the CRF.","Perm"
"SDTMIG v3.2","13","Interventions","CM","CMOCCUR","CM Occurrence","Char","C66742",,"","Record Qualifier","When the use of specific medications is solicited, CMOCCUR is used to indicate whether or not (Y/N) use of the medication occurred. Values are null for medications not specifically solicited.","Perm"
"SDTMIG v3.2","14","Interventions","CM","CMSTAT","Completion Status","Char","C66789",,"","Record Qualifier","Used to indicate that a question about a pre-specified medication was not answered. Should be null or have a value of NOT DONE.","Perm"
"SDTMIG v3.2","15","Interventions","CM","CMREASND","Reason Medication Not Collected","Char","",,"","Record Qualifier","Describes the reason concomitant medication was not collected. Used in conjunction with CMSTAT when value is NOT DONE.","Perm"
"SDTMIG v3.2","16","Interventions","CM","CMINDC","Indication","Char","",,"","Record Qualifier","Denotes why a medication was taken or administered. Examples: NAUSEA, HYPERTENSION.","Perm"
"SDTMIG v3.2","17","Interventions","CM","CMCLAS","Medication Class","Char","",,"","Variable Qualifier","Drug class. May be obtained from coding. When coding to a single class, populate with class value. If using a dictionary and coding to multiple classes, then follow Section 4: 4.1.2.8.3, Multiple Values For A Non-Result Qualifier Variable or omit CMCLAS.","Perm"
"SDTMIG v3.2","18","Interventions","CM","CMCLASCD","Medication Class Code","Char","",,"","Variable Qualifier","Class code corresponding to CMCLAS. Drug class. May be obtained from coding. When coding to a single class, populate with class code. If using a dictionary and coding to multiple classes, then follow Section 4: 4.1.2.8.3, Multiple Values For A Non-Result Qualifier Variable or omit CMCLASCD.","Perm"
"SDTMIG v3.2","19","Interventions","CM","CMDOSE","Dose per Administration","Num","",,"","Record Qualifier","Amount of CMTRT taken. Not populated when CMDOSTXT is populated.","Perm"
"SDTMIG v3.2","20","Interventions","CM","CMDOSTXT","Dose Description","Char","",,"","Record Qualifier","Dosing amounts or a range of dosing information collected in text form. Units may be stored in CMDOSU. Example: 200-400, 15-20. Not populated when CMDOSE is populated.","Perm"
"SDTMIG v3.2","21","Interventions","CM","CMDOSU","Dose Units","Char","C71620",,"","Variable Qualifier","Units for CMDOSE, CMDOSTOT, and CMDOSTXT. Examples: ng, mg, or mg/kg.","Perm"
"SDTMIG v3.2","22","Interventions","CM","CMDOSFRM","Dose Form","Char","C66726",,"","Variable Qualifier","Dose form for CMTRT. Examples: TABLET, LOTION.","Perm"
"SDTMIG v3.2","23","Interventions","CM","CMDOSFRQ","Dosing Frequency per Interval","Char","C71113",,"","Variable Qualifier","Usually expressed as the number of repeated administrations of CMDOSE within a specific time period. Examples: BID (twice daily), Q12H (every 12 hours).","Perm"
"SDTMIG v3.2","24","Interventions","CM","CMDOSTOT","Total Daily Dose","Num","",,"","Record Qualifier","Total daily dose of CMTRT using the units in CMDOSU. Used when dosing is collected as Total Daily Dose. Total dose over a period other than day could be recorded in a separate Supplemental Qualifier variable.","Perm"
"SDTMIG v3.2","25","Interventions","CM","CMDOSRGM","Intended Dose Regimen","Char","",,"","Variable Qualifier","Text description of the (intended) schedule or regimen for the Intervention. Examples: TWO WEEKS ON, TWO WEEKS OFF.","Perm"
"SDTMIG v3.2","26","Interventions","CM","CMROUTE","Route of Administration","Char","C66729",,"","Variable Qualifier","Route of administration for CMTRT. Examples: ORAL, INTRAVENOUS.","Perm"
"SDTMIG v3.2","27","Interventions","CM","CMSTDTC","Start Date/Time of Medication","Char","","ISO 8601","","Timing",,"Perm"
"SDTMIG v3.2","28","Interventions","CM","CMENDTC","End Date/Time of Medication","Char","","ISO 8601","","Timing",,"Perm"
"SDTMIG v3.2","29","Interventions","CM","CMSTDY","Study Day of Start of Medication","Num","",,"","Timing","Study day of start of medication relative to the sponsor-defined RFSTDTC.","Perm"
"SDTMIG v3.2","30","Interventions","CM","CMENDY","Study Day of End of Medication","Num","",,"","Timing","Study day of end of medication relative to the sponsor-defined RFSTDTC.","Perm"
"SDTMIG v3.2","31","Interventions","CM","CMDUR","Duration of Medication","Char","","ISO 8601","","Timing","Collected duration for a treatment episode. Used only if collected on the CRF and not derived from start and end date/times.","Perm"
"SDTMIG v3.2","32","Interventions","CM","CMSTRF","Start Relative to Reference Period","Char","C66728",,"","Timing","Describes the start of the medication relative to sponsor-defined reference period. The sponsor-defined reference period is a continuous period of time defined by a discrete starting point and a discrete ending point (represented by RFSTDTC and RFENDTC in Demographics). If information such as ""PRIOR"", ONGOING or ""CONTINUING"" was collected, this information may be translated into CMSTRF.","Perm"
"SDTMIG v3.2","33","Interventions","CM","CMENRF","End Relative to Reference Period","Char","C66728",,"","Timing","Describes the end of the medication relative to the sponsor-defined reference period. The sponsor-defined reference period is a continuous period of time defined by a discrete starting point and a discrete ending point (represented by RFSTDTC and RFENDTC in Demographics). If information such as ""PRIOR"", ""ONGOING, or ""CONTINUING"" was collected, this information may be translated into CMENRF.","Perm"
"SDTMIG v3.2","34","Interventions","CM","CMSTRTPT","Start Relative to Reference Time Point","Char","C66728",,"","Timing","Identifies the start of the medication as being before or after the reference time point defined by variable CMSTTPT.","Perm"
"SDTMIG v3.2","35","Interventions","CM","CMSTTPT","Start Reference Time Point","Char","",,"","Timing","Description or date/time in ISO 8601 character format of the reference point referred to by CMSTRTPT. Examples: ""2003-12-15"" or ""VISIT 1"".","Perm"
"SDTMIG v3.2","36","Interventions","CM","CMENRTPT","End Relative to Reference Time Point","Char","C66728",,"","Timing","Identifies the end of the medication as being before or after the reference time point defined by variable CMENTPT.","Perm"
"SDTMIG v3.2","37","Interventions","CM","CMENTPT","End Reference Time Point","Char","",,"","Timing","Description or date/time in ISO 8601 character format of the reference point referred to by CMENRTPT. Examples: ""2003-12-25"" or ""VISIT 2"".","Perm"
"SDTMIG v3.2","1","Interventions","EX","STUDYID","Study Identifier","Char","",,"","Identifier","Unique identifier for a study.","Req"
"SDTMIG v3.2","2","Interventions","EX","DOMAIN","Domain Abbreviation","Char","",,"EX","Identifier","Two-character abbreviation for the domain.","Req"
"SDTMIG v3.2","3","Interventions","EX","USUBJID","Unique Subject Identifier","Char","",,"","Identifier","Identifier used to uniquely identify a subject across all studies for all applications or submissions involving the product.","Req"
"SDTMIG v3.2","4","Interventions","EX","EXSEQ","Sequence Number","Num","",,"","Identifier","Sequence Number given to ensure uniqueness of subject records within a domain. May be any valid number.","Req"
"SDTMIG v3.2","5","Interventions","EX","EXGRPID","Group ID","Char","",,"","Identifier","Used to tie together a block of related records in a single domain for a subject.","Perm"
"SDTMIG v3.2","6","Interventions","EX","EXREFID","Reference ID","Char","",,"","Identifier","Internal or external identifier (e.g., kit number, bottle label, vial identifier).","Perm"
"SDTMIG v3.2","7","Interventions","EX","EXSPID","Sponsor-Defined Identifier","Char","",,"","Identifier","Sponsor-defined reference number. Perhaps pre-printed on the CRF as an explicit line identifier or defined in the sponsor's operational database. Example: Line number on a CRF Page.","Perm"
"SDTMIG v3.2","8","Interventions","EX","EXLNKID","Link ID","Char","",,"","Identifier","Identifier used to link related records across domains.","Perm"
"SDTMIG v3.2","9","Interventions","EX","EXLNKGRP","Link Group ID","Char","",,"","Identifier","Identifier used to link related, grouped records across domains.","Perm"
"SDTMIG v3.2","10","Interventions","EX","EXTRT","Name of Treatment","Char","",,"","Topic","Name of the protocol-specified study treatment given during the dosing period for the observation.","Req"
"SDTMIG v3.2","11","Interventions","EX","EXCAT","Category of Treatment","Char","",,"","Grouping Qualifier","Used to define a category of EXTRT values.","Perm"
"SDTMIG v3.2","12","Interventions","EX","EXSCAT","Subcategory of Treatment","Char","",,"","Grouping Qualifier","A further categorization of EXCAT values.","Perm"
"SDTMIG v3.2","13","Interventions","EX","EXDOSE","Dose","Num","",,"","Record Qualifier","Amount of EXTRT when numeric. Not populated when EXDOSTXT is populated.","Exp"
"SDTMIG v3.2","14","Interventions","EX","EXDOSTXT","Dose Description","Char","",,"","Record Qualifier","Amount of EXTRT when non-numeric. Dosing amounts or a range of dosing information collected in text form. Example: 200-400. Not populated when EXDOSE is populated.","Perm"
"SDTMIG v3.2","15","Interventions","EX","EXDOSU","Dose Units","Char","C71620",,"","Variable Qualifier","Units for EXDOSE, EXDOSTOT, or EXDOSTXT representing protocol-specified values. Examples: ng, mg, mg/kg, mg/m2.","Exp"
"SDTMIG v3.2","16","Interventions","EX","EXDOSFRM","Dose Form","Char","C66726",,"","Variable Qualifier","Dose form for EXTRT. Examples: TABLET, LOTION.","Exp"
"SDTMIG v3.2","17","Interventions","EX","EXDOSFRQ","Dosing Frequency per Interval","Char","C71113",,"","Variable Qualifier","Usually expressed as the number of repeated administrations of EXDOSE within a specific time period. Examples: Q2H, QD, BID.","Perm"
"SDTMIG v3.2","18","Interventions","EX","EXDOSRGM","Intended Dose Regimen","Char","",,"","Variable Qualifier","Text description of the intended schedule or regimen for the Intervention. Example: TWO WEEKS ON, TWO WEEKS OFF.","Perm"
"SDTMIG v3.2","19","Interventions","EX","EXROUTE","Route of Administration","Char","C66729",,"","Variable Qualifier","Route of administration for the intervention. Examples: ORAL, INTRAVENOUS.","Perm"
"SDTMIG v3.2","20","Interventions","EX","EXLOT","Lot Number","Char","",,"","Record Qualifier","Lot Number of the intervention product.","Perm"
"SDTMIG v3.2","21","Interventions","EX","EXLOC","Location of Dose Administration","Char","C74456",,"","Record Qualifier","Specifies location of administration. Examples: ARM, LIP.","Perm"
"SDTMIG v3.2","22","Interventions","EX","EXLAT","Laterality","Char","C99073",,"","Variable Qualifier","Qualifier for anatomical location further detailing laterality of the intervention administration. Examples: LEFT, RIGHT.","Perm"
"SDTMIG v3.2","23","Interventions","EX","EXDIR","Directionality","Char","C99074",,"","Variable Qualifier","Qualifier for anatomical location further detailing directionality. Examples: ANTERIOR, LOWER, PROXIMAL, UPPER.","Perm"
"SDTMIG v3.2","24","Interventions","EX","EXFAST","Fasting Status","Char","C66742",,"","Record Qualifier","Indicator used to identify fasting status. Examples: Y, N.","Perm"
"SDTMIG v3.2","25","Interventions","EX","EXADJ","Reason for Dose Adjustment","Char","",,"","Record Qualifier","Describes reason or explanation of why a dose is adjusted.","Perm"
"SDTMIG v3.2","26","Interventions","EX","EPOCH","Epoch","Char","C99079",,"","Timing","Trial Epoch of the Exposure record. Examples: RUN-IN, TREATMENT.","Perm"
"SDTMIG v3.2","27","Interventions","EX","EXSTDTC","Start Date/Time of Treatment","Char","","ISO 8601","","Timing","The date/time when administration of the treatment indicated by EXTRT and EXDOSE began.","Exp"
"SDTMIG v3.2","28","Interventions","EX","EXENDTC","End Date/Time of Treatment","Char","","ISO 8601","","Timing","The date/time when administration of the treatment indicated by EXTRT and EXDOSE ended. For administrations considered given at a point in time (e.g., oral tablet, pre-filled syringe injection), where only an administration date/time is collected, EXSTDTC should be copied to EXENDTC as the standard representation.","Exp"
"SDTMIG v3.2","29","Interventions","EX","EXSTDY","Study Day of Start of Treatment","Num","",,"","Timing","Study day of EXSTDTC relative to DM.RFSTDTC.","Perm"
"SDTMIG v3.2","30","Interventions","EX","EXENDY","Study Day of End of Treatment","Num","",,"","Timing","Study day of EXENDTC relative to DM.RFSTDTC.","Perm"
"SDTMIG v3.2","31","Interventions","EX","EXDUR","Duration of Treatment","Char","","ISO 8601","","Timing","Collected duration of administration represented in ISO 8601 duration format. Used only if collected on the CRF and not derived from start and end date/times.","Perm"
"SDTMIG v3.2","32","Interventions","EX","EXTPT","Planned Time Point Name","Char","",,"","Timing","1. Text Description of time when administration should occur. 2. This may be represented as an elapsed time relative to a fixed reference point, such as time of last dose. See EXTPTNUM and EXTPTREF.","Perm"
"SDTMIG v3.2","33","Interventions","EX","EXTPTNUM","Planned Time Point Number","Num","",,"","Timing","Numerical version of EXTPT to aid in sorting.","Perm"
"SDTMIG v3.2","34","Interventions","EX","EXELTM","Planned Elapsed Time from Time Point Ref","Char","","ISO 8601","","Timing","Planned elapsed time (in ISO 8601 format) relative to the planned fixed reference (EXTPTREF). This variable is useful where there are repetitive measures. Not a clock time. Represented in ISO 8601 duration format.","Perm"
"SDTMIG v3.2","35","Interventions","EX","EXTPTREF","Time Point Reference","Char","",,"","Timing","Name of the fixed reference point referred to by EXELTM, EXTPTNUM, and EXTPT. Examples: PREVIOUS DOSE, PREVIOUS MEAL.","Perm"
"SDTMIG v3.2","36","Interventions","EX","EXRFTDTC","Date/Time of Reference Time Point","Char","","ISO 8601","","Timing","Date/time for a fixed reference time point defined by EXTPTREF in ISO 8601 character format.","Perm"
"SDTMIG v3.2","1","Interventions","EC","STUDYID","Study Identifier","Char","",,"","Identifier","Unique identifier for a study.","Req"
"SDTMIG v3.2","2","Interventions","EC","DOMAIN","Domain Abbreviation","Char","",,"EC","Identifier","Two-character abbreviation for the domain.","Req"
"SDTMIG v3.2","3","Interventions","EC","USUBJID","Unique Subject Identifier","Char","",,"","Identifier","Identifier used to uniquely identify a subject across all studies for all applications or submissions involving the product.","Req"
"SDTMIG v3.2","4","Interventions","EC","ECSEQ","Sequence Number","Num","",,"","Identifier","Sequence Number given to ensure uniqueness of subject records within a domain. May be any valid number.","Req"
"SDTMIG v3.2","5","Interventions","EC","ECGRPID","Group ID","Char","",,"","Identifier","Used to tie together a block of related records in a single domain for a subject.","Perm"
"SDTMIG v3.2","6","Interventions","EC","ECREFID","Reference ID","Char","",,"","Identifier","Internal or external identifier (e.g., kit number, bottle label, vial identifier).","Perm"
"SDTMIG v3.2","7","Interventions","EC","ECSPID","Sponsor-Defined Identifier","Char","",,"","Identifier","Sponsor-defined reference number. Perhaps pre-printed on the CRF as an explicit line identifier or defined in the sponsor's operational database. Example: Line number on a CRF Page.","Perm"
"SDTMIG v3.2","8","Interventions","EC","ECLNKID","Link ID","Char","",,"","Identifier","Identifier used to link related records across domains.","Perm"
"SDTMIG v3.2","9","Interventions","EC","ECLNKGRP","Link Group ID","Char","",,"","Identifier","Identifier used to link related, grouped records across domains.","Perm"
"SDTMIG v3.2","10","Interventions","EC","ECTRT","Name of Treatment","Char","",,"","Topic","Name of the intervention treatment known to the subject and/or administrator.","Req"
"SDTMIG v3.2","11","Interventions","EC","ECMOOD","Mood","Char","",,"","Record Qualifier","Mode or condition of the record specifying whether the intervention (activity) is intended to happen or has happened.  Values align with BRIDG pillars (e.g., scheduled context, performed context) and HL7 activity moods (e.g., intent, event).  Examples: SCHEDULED, PERFORMED. CDISC Controlled Terminology request for MOOD codelist with values of SCHEDULED and PERFORMED has been submitted.","Perm"
"SDTMIG v3.2","12","Interventions","EC","ECCAT","Category of Treatment","Char","",,"","Grouping Qualifier","Used to define a category of related ECTRT values.","Perm"
"SDTMIG v3.2","13","Interventions","EC","ECSCAT","Subcategory of Treatment","Char","",,"","Grouping Qualifier","A further categorization of ECCAT values.","Perm"
"SDTMIG v3.2","14","Interventions","EC","ECPRESP","Pre-Specified","Char","C66742",,"","Record Qualifier","Used when a specific intervention is pre-specified. Values should be ""Y"" or null.","Perm"
"SDTMIG v3.2","15","Interventions","EC","ECOCCUR","Occurrence","Char","C66742",,"","Record Qualifier","Used to indicate whether a treatment occurred when information about the occurrence is solicited. ECOCCUR = 'N' when a treatment was not taken, not given, or missed.","Perm"
"SDTMIG v3.2","16","Interventions","EC","ECDOSE","Dose","Num","",,"","Record Qualifier","Amount of ECTRT when numeric. Not populated when ECDOSTXT is populated.","Exp"
"SDTMIG v3.2","17","Interventions","EC","ECDOSTXT","Dose Description","Char","",,"","Record Qualifier","Amount of ECTRT when non-numeric. Dosing amounts or a range of dosing information collected in text form. Example: 200-400. Not populated when ECDOSE is populated.","Perm"
"SDTMIG v3.2","18","Interventions","EC","ECDOSU","Dose Units","Char","C71620",,"","Variable Qualifier","Units for ECDOSE, ECDOSTOT, or ECDOSTXT.","Exp"
"SDTMIG v3.2","19","Interventions","EC","ECDOSFRM","Dose Form","Char","C66726",,"","Variable Qualifier","Dose form for ECTRT. Examples: TABLET, LOTION.","Exp"
"SDTMIG v3.2","20","Interventions","EC","ECDOSFRQ","Dosing Frequency per Interval","Char","C71113",,"","Variable Qualifier","Usually expressed as the number of repeated administrations of ECDOSE within a specific time period. Examples: Q2H, QD, BID.","Perm"
"SDTMIG v3.2","21","Interventions","EC","ECDOSTOT","Total Daily Dose","Char","",,"","Record Qualifier","Total daily dose of ECTRT using the units in ECDOSU. Used when dosing is collected as Total Daily Dose.","Perm"
"SDTMIG v3.2","22","Interventions","EC","ECDOSRGM","Intended Dose Regimen","Char","",,"","Variable Qualifier","Text description of the intended schedule or regimen for the Intervention. Example: TWO WEEKS ON, TWO WEEKS OFF.","Perm"
"SDTMIG v3.2","23","Interventions","EC","ECROUTE","Route of Administration","Char","C66729",,"","Variable Qualifier","Route of administration for the intervention. Examples: ORAL, INTRAVENOUS.","Perm"
"SDTMIG v3.2","24","Interventions","EC","ECLOT","Lot Number","Char","",,"","Record Qualifier","Lot Number of the ECTRT product.","Perm"
"SDTMIG v3.2","25","Interventions","EC","ECLOC","Location of Dose Administration","Char","C74456",,"","Record Qualifier","Specifies location of administration. Example: ARM, LIP.","Perm"
"SDTMIG v3.2","26","Interventions","EC","ECLAT","Laterality","Char","C99073",,"","Record Qualifier","Qualifier for anatomical location further detailing laterality of the intervention administration. Examples: LEFT, RIGHT.","Perm"
"SDTMIG v3.2","27","Interventions","EC","ECDIR","Directionality","Char","C99074",,"","Variable Qualifier","Qualifier for anatomical location further detailing directionality. Examples: ANTERIOR, LOWER, PROXIMAL, UPPER.","Perm"
"SDTMIG v3.2","28","Interventions","EC","ECPORTOT","Portion or Totality","Char","C99075",,"","Variable Qualifier","Qualifier for anatomical location further detailing distribution, which means arrangement of, apportioning of. Examples: ENTIRE, SINGLE, SEGMENT.","Perm"
"SDTMIG v3.2","29","Interventions","EC","ECFAST","Fasting Status","Char","C66742",,"","Record Qualifier","Indicator used to identify fasting status. Examples: Y, N.","Perm"
"SDTMIG v3.2","30","Interventions","EC","ECPSTRG","Pharmaceutical Strength","Num","",,"","Variable Qualifier","Amount of an active ingredient expressed quantitatively per dosage unit, per unit of volume, or per unit of weight, according to the pharmaceutical dose form.","Perm"
"SDTMIG v3.2","31","Interventions","EC","ECPSTRGU","Pharmaceutical Strength Units","Char","",,"","Variable Qualifier","Unit for ECPSTRG. Examples: mg/TABLET, mg/mL.","Perm"
"SDTMIG v3.2","32","Interventions","EC","ECADJ","Reason for Dose Adjustment","Char","",,"","Record Qualifier","Describes reason or explanation of why a dose is adjusted.","Perm"
"SDTMIG v3.2","33","Interventions","EC","EPOCH","Epoch","Char","C99079",,"","Timing","Trial Epoch of the exposure as collected record. Examples: RUN-IN, TREATMENT.","Perm"
"SDTMIG v3.2","34","Interventions","EC","ECSTDTC","Start Date/Time of Treatment","Char","","ISO 8601","","Timing","The date/time when administration of the treatment indicated by ECTRT and ECDOSE began.","Exp"
"SDTMIG v3.2","35","Interventions","EC","ECENDTC","End Date/Time of Treatment","Char","","ISO 8601","","Timing","The date/time when administration of the treatment indicated by ECTRT and ECDOSE ended. For administrations considered given at a point in time (e.g., oral tablet, pre-filled syringe injection), where only an administration date/time is collected, ECSTDTC should be copied to ECENDTC as the standard representation.","Exp"
"SDTMIG v3.2","36","Interventions","EC","ECSTDY","Study Day of Start of Treatment","Num","",,"","Timing","Study day of ECSTDTC relative to the sponsor-defined DM.RFSTDTC.","Perm"
"SDTMIG v3.2","37","Interventions","EC","ECENDY","Study Day of End of Treatment","Num","",,"","Timing","Study day of ECENDTC relative to the sponsor-defined DM.RFSTDTC.","Perm"
"SDTMIG v3.2","38","Interventions","EC","ECDUR","Duration of Treatment","Char","","ISO 8601","","Timing","Collected duration of administration represented in ISO 8601 duration format. Used only if collected on the CRF and not derived from start and end date/times.","Perm"
"SDTMIG v3.2","39","Interventions","EC","ECTPT","Planned Time Point Name","Char","",,"","Timing","Text Description of time when administration should occur. This may be represented as an elapsed time relative to a fixed reference point, such as time of last dose. See ECTPTNUM and ECTPTREF.","Perm"
"SDTMIG v3.2","40","Interventions","EC","ECTPTNUM","Planned Time Point Number","Num","",,"","Timing","Numerical version of ECTPT to aid in sorting.","Perm"
"SDTMIG v3.2","41","Interventions","EC","ECELTM","Planned Elapsed Time from Time Point Ref","Char","","ISO 8601","","Timing","Planned elapsed time (in ISO 8601 format) relative to the planned fixed reference (ECTPTREF). This variable is useful where there are repetitive measures. Not a clock time. Represented in ISO 8601 duration format.","Perm"
"SDTMIG v3.2","42","Interventions","EC","ECTPTREF","Time Point Reference","Char","",,"","Timing","Name of the fixed reference point referred to by ECELTM, ECTPTNUM, and ECTPT. Examples: PREVIOUS DOSE, PREVIOUS MEAL.","Perm"
"SDTMIG v3.2","43","Interventions","EC","ECRFTDTC","Date/Time of Reference Time Point","Char","","ISO 8601","","Timing","Date/time for a fixed reference time point defined by ECTPTREF in ISO 8601 character format.","Perm"
"SDTMIG v3.2","1","Interventions","PR","STUDYID","Study Identifier","Char","",,"","Identifier","Unique identifier for a study.","Req"
"SDTMIG v3.2","2","Interventions","PR","DOMAIN","Domain Abbreviation","Char","",,"PR","Identifier","Two-character abbreviation for the domain.","Req"
"SDTMIG v3.2","3","Interventions","PR","USUBJID","Unique Subject Identifier","Char","",,"","Identifier","Identifier used to uniquely identify a subject across all studies for all applications or submissions involving the product.","Req"
"SDTMIG v3.2","4","Interventions","PR","PRSEQ","Sequence Number","Num","",,"","Identifier","Sequence number to ensure uniqueness of records within a dataset for a subject. Should be assigned to be in a consistent chronological order.","Req"
"SDTMIG v3.2","5","Interventions","PR","PRGRPID","Group ID","Char","",,"","Identifier","Used to link together a block of related records within a subject in a domain.","Perm"
"SDTMIG v3.2","6","Interventions","PR","PRSPID","Sponsor-Defined Identifier","Char","",,"","Identifier","Sponsor-defined identifier. Example: pre-printed line identifier on a CRF or record identifier defined in the sponsor's operational database.","Perm"
"SDTMIG v3.2","7","Interventions","PR","PRLNKID","Link ID","Char","",,"","Identifier","Used to facilitate identification of relationships between records.","Perm"
"SDTMIG v3.2","8","Interventions","PR","PRLNKGRP","Link Group ID","Char","",,"","Identifier","Used to facilitate identification of relationships between records.",
"SDTMIG v3.2","9","Interventions","PR","PRTRT","Reported Name of Procedure","Char","",,"","Topic","Name of procedure performed, either pre-printed or collected on a CRF.","Req"
"SDTMIG v3.2","10","Interventions","PR","PRDECOD","Standardized Procedure Name","Char","",,"","Synonym Qualifier","Standardized or dictionary-derived name of PRTRT. The sponsor is expected to provide the dictionary name and version used to map the terms in the define.xml external codelist attributes. If an intervention term does not have a decode value in the dictionary then PRDECOD will be null.","Perm"
"SDTMIG v3.2","11","Interventions","PR","PRCAT","Category","Char","",,"","Grouping Qualifier","Used to define a category of procedure values.","Perm"
"SDTMIG v3.2","12","Interventions","PR","PRSCAT","Subcategory","Char","",,"","Grouping Qualifier","Used to define a further categorization of PRCAT values.","Perm"
"SDTMIG v3.2","13","Interventions","PR","PRPRESP","Pre-specified","Char","C66742",,"","Record Qualifier","Used when a specific procedure is pre-specified on a CRF. Values should be ""Y"" or null.","Perm"
"SDTMIG v3.2","14","Interventions","PR","PROCCUR","Occurrence","Char","C66742",,"","Record Qualifier","Used to record whether a pre-specified procedure occurred when information about the occurrence of a specific procedure is solicited.","Perm"
"SDTMIG v3.2","15","Interventions","PR","PRINDC","Indication","Char","",,"","Record Qualifier","Denotes the indication for the procedure (e.g., why the procedure was performed).","Perm"
"SDTMIG v3.2","16","Interventions","PR","PRDOSE","Dose","Num","",,"","Record Qualifier","Amount of PRTRT administered. Not populated when PRDOSTXT is populated.","Perm"
"SDTMIG v3.2","17","Interventions","PR","PRDOSTXT","Dose Description","Char","",,"","Record Qualifier","Dosing information collected in text form. Examples: <1, 200-400. Not populated when PRDOSE is populated.","Perm"
"SDTMIG v3.2","18","Interventions","PR","PRDOSU","Dose Units","Char","C71620",,"","Variable Qualifier","Units for PRDOSE, PRDOSTOT, or PRDOSTXT.","Perm"
"SDTMIG v3.2","19","Interventions","PR","PRDOSFRM","Dose Form","Char","C66726",,"","Variable Qualifier","Dose form for PRTRT.","Perm"
"SDTMIG v3.2","20","Interventions","PR","PRDOSFRQ","Dosing Frequency per Interval","Char","",,"","Variable Qualifier","Usually expressed as the number of doses given per a specific interval.","Perm"
"SDTMIG v3.2","21","Interventions","PR","PRDOSRGM","Intended Dose Regimen","Char","",,"","Variable Qualifier","Text description of the intended schedule or regimen for the procedure.","Perm"
"SDTMIG v3.2","22","Interventions","PR","PRROUTE","Route of Administration","Char","C66729",,"","Variable Qualifier","Route of administration for PRTRT.","Perm"
"SDTMIG v3.2","23","Interventions","PR","PRLOC","Location of Procedure","Char","C74456",,"","Record Qualifier","Anatomical location of a procedure.","Perm"
"SDTMIG v3.2","24","Interventions","PR","PRLAT","Laterality","Char","C99073",,"","Variable Qualifier","Qualifier for anatomical location or specimen further detailing laterality.","Perm"
"SDTMIG v3.2","25","Interventions","PR","PRDIR","Directionality","Char","C99074",,"","Variable Qualifier","Qualifier for anatomical location or specimen further detailing directionality.","Perm"
"SDTMIG v3.2","26","Interventions","PR","PRPORTOT","Portion or Totality","Char","C99075",,"","Variable Qualifier","Qualifier for anatomical location or specimen further detailing the distribution, which means arrangement of, apportioning of.","Perm"
"SDTMIG v3.2","27","Interventions","PR","VISITNUM","Visit Number","Num","",,"","Timing","Clinical encounter number. Numeric version of VISIT, used for sorting.","Perm"
"SDTMIG v3.2","28","Interventions","PR","VISIT","Visit Name","Char","",,"","Timing","Protocol-defined description of a clinical encounter.","Perm"
"SDTMIG v3.2","29","Interventions","PR","VISITDY","Planned Study Day of Visit","Num","",,"","Timing","Planned study day of VISIT. Should be an integer.","Perm"
"SDTMIG v3.2","30","Interventions","PR","PRSTDTC","Start Date/Time of Procedure","Char","","ISO 8601","","Timing","Start date/time of the procedure represented in ISO 8601 character format.","Exp"
"SDTMIG v3.2","31","Interventions","PR","PRENDTC","End Date/Time of Procedure","Char","","ISO 8601","","Timing","End date/time of the procedure represented in ISO 8601 character format.","Perm"
"SDTMIG v3.2","32","Interventions","PR","PRSTDY","Study Day of Start of Procedure","Num","",,"","Timing","Study day of start of procedure expressed in integer days relative to the sponsor-defined RFSTDTC in Demographics.","Perm"
"SDTMIG v3.2","33","Interventions","PR","PRENDY","Study Day of End of Procedure","Num","",,"","Timing","Study day of end of procedure expressed in integer days relative to the sponsor-defined RFSTDTC in Demographics.","Perm"
"SDTMIG v3.2","34","Interventions","PR","PRDUR","Duration of Procedure","Char","","ISO 8601","","Timing","Collected duration of a procedure represented in ISO 8601 character format. Used only if collected on the CRF and not derived from start and end date/times.","Perm"
"SDTMIG v3.2","35","Interventions","PR","PRTPT","Planned Time Point Name","Char","",,"","Timing","Text description of time when a procedure should be performed. This may be represented as an elapsed time relative to a fixed reference point, such as time of last dose. See PRTPTNUM and PRTPTREF.","Perm"
"SDTMIG v3.2","36","Interventions","PR","PRTPTNUM","Planned Time Point Number","Num","",,"","Timing","Numerical version of planned time point used in sorting.","Perm"
"SDTMIG v3.2","37","Interventions","PR","PRELTM","Planned Elapsed Time from Time Point Ref","Char","","ISO 8601","","Timing","Planned elapsed time in ISO 8601 format relative to a planned fixed reference (PRTPTREF). This variable is useful where there are repetitive measures. Not a clock time or a date/time variable, but an interval, represented as ISO duration.","Perm"
"SDTMIG v3.2","38","Interventions","PR","PRTPTREF","Time Point Reference","Char","",,"","Timing","Description of the fixed reference point referred to by PRELTM, PRTPTNUM, and PRTPT.","Perm"
"SDTMIG v3.2","39","Interventions","PR","PRRFTDTC","Date/Time of Reference Time Point","Char","","ISO 8601","","Timing","Date/time for a fixed reference time point defined by PRTRTREF in ISO 8601 character format.","Perm"
"SDTMIG v3.2","40","Interventions","PR","PRSTRTPT","Start Relative to Reference Time Point","Char","",,"AFTER; BEFORE; COINCIDENT; U","Timing","Identifies the start of the observation as being before or after the sponsor-defined reference time point defined by variable PRSTTPT.","Perm"
"SDTMIG v3.2","41","Interventions","PR","PRSTTPT","Start Reference Time Point","Char","",,"","Timing","Description or date/time in ISO 8601 character format of the sponsor-defined reference point referred to by PRSTRTPT. Examples: ""2003-12-15"" or ""VISIT 1"".","Perm"
"SDTMIG v3.2","42","Interventions","PR","PRENRTPT","End Relative to Reference Time Point","Char","",,"AFTER; BEFORE; COINCIDENT; ONGOING; U","Timing","Identifies the end of the observation as being before or after the sponsor-defined reference time point defined by variable PRENTPT.","Perm"
"SDTMIG v3.2","43","Interventions","PR","PRENTPT","End Reference Time Point","Char","",,"","Timing","Description or date/time in ISO 8601 character format of the sponsor-defined reference point referred to by PRENRTPT. Examples: ""2003-12-25"" or ""VISIT 2"".","Perm"
"SDTMIG v3.2","1","Interventions","SU","STUDYID","Study Identifier","Char","",,"","Identifier","Unique identifier for a study.","Req"
"SDTMIG v3.2","2","Interventions","SU","DOMAIN","Domain Abbreviation","Char","",,"SU","Identifier","Two-character abbreviation for the domain.","Req"
"SDTMIG v3.2","3","Interventions","SU","USUBJID","Unique Subject Identifier","Char","",,"","Identifier","Identifier used to uniquely identify a subject across all studies for all applications or submissions involving the product.","Req"
"SDTMIG v3.2","4","Interventions","SU","SUSEQ","Sequence Number","Num","",,"","Identifier","Sequence Number given to ensure uniqueness of subject records within a domain. May be any valid number.","Req"
"SDTMIG v3.2","5","Interventions","SU","SUGRPID","Group ID","Char","",,"","Identifier","Used to tie together a block of related records in a single domain for a subject.","Perm"
"SDTMIG v3.2","6","Interventions","SU","SUSPID","Sponsor-Defined Identifier","Char","",,"","Identifier","Sponsor-defined reference number. Perhaps pre-printed on the CRF as an explicit line identifier or defined in the sponsor's operational database. Example: Line number on a Tobacco & Alcohol use CRF page.","Perm"
"SDTMIG v3.2","7","Interventions","SU","SUTRT","Reported Name of Substance","Char","",,"","Topic","Substance name. Examples: Cigarettes, Coffee.","Req"
"SDTMIG v3.2","8","Interventions","SU","SUMODIFY","Modified Substance Name","Char","",,"","Synonym Qualifier","If SUTRT is modified, then the modified text is placed here.","Perm"
"SDTMIG v3.2","9","Interventions","SU","SUDECOD","Standardized Substance Name","Char","",,"","Synonym Qualifier","Standardized or dictionary-derived text description of SUTRT or SUMODIFY if the sponsor chooses to code the substance use. The sponsor is expected to provide the dictionary name and version used to map the terms utilizing the define.xml external codelist attributes.","Perm"
"SDTMIG v3.2","10","Interventions","SU","SUCAT","Category for Substance Use","Char","",,"","Grouping Qualifier","Used to define a category of related records. Examples: TOBACCO, ALCOHOL, or CAFFEINE.","Perm"
"SDTMIG v3.2","11","Interventions","SU","SUSCAT","Subcategory for Substance Use","Char","",,"","Grouping Qualifier","A further categorization of substance use. Examples: CIGARS, CIGARETTES, BEER, WINE","Perm"
"SDTMIG v3.2","12","Interventions","SU","SUPRESP","SU Pre-Specified","Char","C66742",,"","Variable Qualifier","Used to indicate whether (Y/null) information about the use of a specific substance was solicited on the CRF.","Perm"
"SDTMIG v3.2","13","Interventions","SU","SUOCCUR","SU Occurrence","Char","C66742",,"","Record Qualifier","When the use of specific substances is solicited, SUOCCUR is used to indicate whether or not (Y/N) a particular pre-specified substance was used. Values are null for substances not specifically solicited.","Perm"
"SDTMIG v3.2","14","Interventions","SU","SUSTAT","Completion Status","Char","C66789",,"","Record Qualifier","When the use of pre-specified substances is solicited, the completion status indicates that there was no response to the question about the pre-specified substance. When there is no pre-specified list on the CRF, then the completion status indicates that substance use was not assessed for the subject.","Perm"
"SDTMIG v3.2","15","Interventions","SU","SUREASND","Reason Substance Use Not Collected","Char","",,"","Record Qualifier","Describes the reason substance use was not collected. Used in conjunction with SUSTAT when value of SUSTAT is NOT DONE.","Perm"
"SDTMIG v3.2","16","Interventions","SU","SUCLAS","Substance Use Class","Char","",,"","Variable Qualifier","Substance use class. May be obtained from coding. When coding to a single class, populate with class value. If using a dictionary and coding to multiple classes,  then follow Section 4: 4.1.2.8.3, Multiple Values For A Non-Result Qualifier Variable or omit SUCLAS.","Perm"
"SDTMIG v3.2","17","Interventions","SU","SUCLASCD","Substance Use Class Code","Char","",,"","Variable Qualifier","Code corresponding to SUCLAS. May be obtained from coding.","Perm"
"SDTMIG v3.2","18","Interventions","SU","SUDOSE","Substance Use Consumption","Num","",,"","Record Qualifier","Amount of SUTRT consumed. Not populated if SUDOSTXT is populated.","Perm"
"SDTMIG v3.2","19","Interventions","SU","SUDOSTXT","Substance Use Consumption Text","Char","",,"","Record Qualifier","Substance use consumption amounts or a range of consumption information collected in text form. Not populated if SUDOSE is populated.","Perm"
"SDTMIG v3.2","20","Interventions","SU","SUDOSU","Consumption Units","Char","C71620",,"","Variable Qualifier","Units for SUDOSE, SUDOSTOT, or SUDOSTXT. Examples:  OUNCES, CIGARETTE EQUIVALENTS, GRAMS.","Perm"
"SDTMIG v3.2","21","Interventions","SU","SUDOSFRM","Dose Form","Char","",,"","Variable Qualifier","Dose form for SUTRT. Examples: INJECTABLE, LIQUID, or POWDER.","Perm"
"SDTMIG v3.2","22","Interventions","SU","SUDOSFRQ","Use Frequency Per Interval","Char","C71113",,"","Variable Qualifier","Usually expressed as the number of repeated administrations of SUDOSE within a specific time period. Example: Q24H (every day)","Perm"
"SDTMIG v3.2","23","Interventions","SU","SUDOSTOT","Total Daily Consumption","Num","",,"","Record Qualifier","Total daily use of SUTRT using the units in SUDOSU. Used when dosing is collected as Total Daily Dose. If sponsor needs to aggregate the data over a period other than daily, then the aggregated total could be recorded in a Supplemental Qualifier variable.","Perm"
"SDTMIG v3.2","24","Interventions","SU","SUROUTE","Route of Administration","Char","C66729",,"","Variable Qualifier","Route of administration for SUTRT. Examples: ORAL, INTRAVENOUS.","Perm"
"SDTMIG v3.2","25","Interventions","SU","SUSTDTC","Start Date/Time of Substance Use","Char","","ISO 8601","","Timing",,"Perm"
"SDTMIG v3.2","26","Interventions","SU","SUENDTC","End Date/Time of Substance Use","Char","","ISO 8601","","Timing",,"Perm"
"SDTMIG v3.2","27","Interventions","SU","SUSTDY","Study Day of Start of Substance Use","Num","",,"","Timing","Study day of start of substance use relative to the sponsor-defined RFSTDTC.","Perm"
"SDTMIG v3.2","28","Interventions","SU","SUENDY","Study Day of End of Substance Use","Num","",,"","Timing","Study day of end of substance use relative to the sponsor-defined RFSTDTC.","Perm"
"SDTMIG v3.2","29","Interventions","SU","SUDUR","Duration of Substance Use","Char","","ISO 8601","","Timing","Collected duration of substance use in ISO 8601 format. Used only if collected on the CRF and not derived from start and end date/times.","Perm"
"SDTMIG v3.2","30","Interventions","SU","SUSTRF","Start Relative to Reference Period","Char","C66728",,"","Timing","Describes the start of the substance use relative to the sponsor-defined reference period. The sponsor-defined reference period is a continuous period of time defined by a discrete starting point and a discrete ending point (represented by RFSTDTC and RFENDTC in Demographics). If information such as ""PRIOR"", ""ONGOING"", or ""CONTINUING"" was collected, this information may be translated into SUSTRF.","Perm"
"SDTMIG v3.2","31","Interventions","SU","SUENRF","End Relative to Reference Period","Char","C66728",,"","Timing","Describes the end of the substance use with relative to the sponsor-defined reference period. The sponsor-defined reference period is a continuous period of time defined by a discrete starting point and a discrete ending point (represented by RFSTDTC and RFENDTC in Demographics). If information such as ""PRIOR"", ""ONGOING"", or ""CONTINUING"" was collected, this information may be translated into SUENRF.","Perm"
"SDTMIG v3.2","32","Interventions","SU","SUSTRTPT","Start Relative to Reference Time Point","Char","C66728",,"","Timing","Identifies the start of the substance as being before or after the reference time point defined by variable SUSTTPT.","Perm"
"SDTMIG v3.2","33","Interventions","SU","SUSTTPT","Start Reference Time Point","Char","",,"","Timing","Description or date/time in ISO 8601 character format of the reference point referred to by SUSTRTPT. Examples: ""2003-12-15"" or ""VISIT 1"".","Perm"
"SDTMIG v3.2","34","Interventions","SU","SUENRTPT","End Relative to Reference Time Point","Char","C66728",,"","Timing","Identifies the end of the substance as being before or after the reference time point defined by variable SUENTPT.","Perm"
"SDTMIG v3.2","35","Interventions","SU","SUENTPT","End Reference Time Point","Char","",,"","Timing","Description or date/time in ISO 8601 character format of the reference point referred to by SUENRTPT. Examples: ""2003-12-25"" or ""VISIT 2"".","Perm"
"SDTMIG v3.2","1","Events","AE","STUDYID","Study Identifier","Char","",,"","Identifier","Unique identifier for a study.","Req"
"SDTMIG v3.2","2","Events","AE","DOMAIN","Domain Abbreviation","Char","",,"AE","Identifier","Two-character abbreviation for the domain.","Req"
"SDTMIG v3.2","3","Events","AE","USUBJID","Unique Subject Identifier","Char","",,"","Identifier","Identifier used to uniquely identify a subject across all studies for all applications or submissions involving the product.","Req"
"SDTMIG v3.2","4","Events","AE","AESEQ","Sequence Number","Num","",,"","Identifier","Sequence Number given to ensure uniqueness of subject records within a domain. May be any valid number.","Req"
"SDTMIG v3.2","5","Events","AE","AEGRPID","Group ID","Char","",,"","Identifier","Used to tie together a block of related records in a single domain for a subject.","Perm"
"SDTMIG v3.2","6","Events","AE","AEREFID","Reference ID","Char","",,"","Identifier","Internal or external identifier such as a serial number on an SAE reporting form.","Perm"
"SDTMIG v3.2","7","Events","AE","AESPID","Sponsor-Defined Identifier","Char","",,"","Identifier","Sponsor-defined identifier. It may be pre-printed on the CRF as an explicit line identifier or defined in the sponsor's operational database. Example: Line number on an Adverse Events page.","Perm"
"SDTMIG v3.2","8","Events","AE","AETERM","Reported Term for the Adverse Event","Char","",,"","Topic","Verbatim name of the event.","Req"
"SDTMIG v3.2","9","Events","AE","AEMODIFY","Modified Reported Term","Char","",,"","Synonym Qualifier","If AETERM is modified to facilitate coding, then AEMODIFY will contain the modified text.","Perm"
"SDTMIG v3.2","10","Events","AE","AELLT","Lowest Level Term","Char","","MedDRA","","Variable Qualifier","Dictionary-derived text description of the Lowest Level Term.","Exp"
"SDTMIG v3.2","11","Events","AE","AELLTCD","Lowest Level Term Code","Num","","MedDRA","","Variable Qualifier","Dictionary-derived code for the Lowest Level Term.","Exp"
"SDTMIG v3.2","12","Events","AE","AEDECOD","Dictionary-Derived Term","Char","","MedDRA","","Synonym Qualifier","Dictionary-derived text description of AETERM or AEMODIFY. Equivalent to the Preferred Term (PT in MedDRA). The sponsor is expected to provide the dictionary name and version used to map the terms utilizing the define.xml external codelist attributes.","Req"
"SDTMIG v3.2","13","Events","AE","AEPTCD","Preferred Term Code","Num","","MedDRA","","Variable Qualifier","Dictionary-derived code for the Preferred Term.","Exp"
"SDTMIG v3.2","14","Events","AE","AEHLT","High Level Term","Char","","MedDRA","","Variable Qualifier","Dictionary-derived text description of the High Level Term for the primary System Organ Class.","Exp"
"SDTMIG v3.2","15","Events","AE","AEHLTCD","High Level Term Code","Num","","MedDRA","","Variable Qualifier","Dictionary-derived code for the High Level Term for the primary System Organ Class.","Exp"
"SDTMIG v3.2","16","Events","AE","AEHLGT","High Level Group Term","Char","","MedDRA","","Variable Qualifier","Dictionary-derived text description of the High Level Group Term for the primary System Organ Class.","Exp"
"SDTMIG v3.2","17","Events","AE","AEHLGTCD","High Level Group Term Code","Num","","MedDRA","","Variable Qualifier","Dictionary-derived code for the High Level Group Term for the primary System Organ Class.","Exp"
"SDTMIG v3.2","18","Events","AE","AECAT","Category for Adverse Event","Char","",,"","Grouping Qualifier","Used to define a category of related records. Example: BLEEDING, NEUROPSYCHIATRIC.","Perm"
"SDTMIG v3.2","19","Events","AE","AESCAT","Subcategory for Adverse Event","Char","",,"","Grouping Qualifier","A further categorization of adverse event. Example: NEUROLOGIC.","Perm"
"SDTMIG v3.2","20","Events","AE","AEPRESP","Pre-Specified Adverse Event","Char","C66742",,"","Variable Qualifier","A value of ""Y"" indicates that this adverse event was pre-specified on the CRF. Values are null for spontaneously reported events (i.e., those collected as free-text verbatim terms)","Perm"
"SDTMIG v3.2","21","Events","AE","AEBODSYS","Body System or Organ Class","Char","",,"","Record Qualifier","Dictionary derived. Body system or organ class used by the sponsor from the coding dictionary (e.g., MedDRA). When using a multi-axial dictionary such as MedDRA, this should contain the SOC used for the sponsor's analyses and summary tables which may not necessarily be the primary SOC.","Exp"
"SDTMIG v3.2","22","Events","AE","AEBDSYCD","Body System or Organ Class Code","Num","","MedDRA","","Variable Qualifier","Dictionary derived. Code for the body system or organ class used by the sponsor. When using a multi-axial dictionary such as MedDRA, this should contain the SOC used for the sponsor's analyses and summary tables, which may not necessarily be the primary SOC.","Exp"
"SDTMIG v3.2","23","Events","AE","AESOC","Primary System Organ Class","Char","","MedDRA","","Variable Qualifier","Dictionary-derived text description of the primary System Organ Class. Will be the same as AEBODSYS if the primary SOC was used for analysis.","Exp"
"SDTMIG v3.2","24","Events","AE","AESOCCD","Primary System Organ Class Code","Num","","MedDRA","","Variable Qualifier","Dictionary-derived code for the primary System Organ Class. Will be the same as AEBDSYCD if the primary SOC was used for analysis.","Exp"
"SDTMIG v3.2","25","Events","AE","AELOC","Location of Event","Char","C74456",,"","Record Qualifier","Describes anatomical location relevant for the event (e.g., ARM for skin rash).","Perm"
"SDTMIG v3.2","26","Events","AE","AESEV","Severity/Intensity","Char","C66769",,"","Record Qualifier","The severity or intensity of the event. Examples: MILD, MODERATE, SEVERE.","Perm"
"SDTMIG v3.2","27","Events","AE","AESER","Serious Event","Char","C66742",,"","Record Qualifier","Is this a serious event?","Exp"
"SDTMIG v3.2","28","Events","AE","AEACN","Action Taken with Study Treatment","Char","C66767",,"","Record Qualifier","Describes changes to the study treatment as a result of the event. AEACN is specifically for the relationship to study treatment. AEACNOTH is for actions unrelated to dose adjustments of study treatment. Examples of AEACN values include ICH E2B values: DRUG WITHDRAWN, DOSE REDUCED, DOSE INCREASED, DOSE NOT CHANGED, UNKNOWN or NOT APPLICABLE.","Exp"
"SDTMIG v3.2","29","Events","AE","AEACNOTH","Other Action Taken","Char","",,"","Record Qualifier","Describes other actions taken as a result of the event that are unrelated to dose adjustments of study treatment. Usually reported as free text. Example: ""TREATMENT UNBLINDED. PRIMARY CARE PHYSICIAN NOTIFIED.""","Perm"
"SDTMIG v3.2","30","Events","AE","AEREL","Causality","Char","",,"","Record Qualifier","Records the investigator's opinion as to the causality of the event to the treatment. ICH E2A and E2B examples include NOT RELATED, UNLIKELY RELATED, POSSIBLY RELATED, RELATED. Controlled Terminology may be defined in the future. Check with regulatory authority for population of this variable.","Exp"
"SDTMIG v3.2","31","Events","AE","AERELNST","Relationship to Non-Study Treatment","Char","",,"","Record Qualifier","Records the investigator's opinion as to whether the event may have been due to a treatment other than study drug. May be reported as free text. Example: ""MORE LIKELY RELATED TO ASPIRIN USE."".","Perm"
"SDTMIG v3.2","32","Events","AE","AEPATT","Pattern of Adverse Event","Char","",,"","Record Qualifier","Used to indicate the pattern of the event over time. Examples: INTERMITTENT, CONTINUOUS, SINGLE EVENT.","Perm"
"SDTMIG v3.2","33","Events","AE","AEOUT","Outcome of Adverse Event","Char","C66768",,"","Record Qualifier","Description of the outcome of an event.","Perm"
"SDTMIG v3.2","34","Events","AE","AESCAN","Involves Cancer","Char","C66742",,"","Record Qualifier","Was the serious event associated with the development of cancer?","Perm"
"SDTMIG v3.2","35","Events","AE","AESCONG","Congenital Anomaly or Birth Defect","Char","C66742",,"","Record Qualifier","Was the serious event associated with congenital anomaly or birth defect?","Perm"
"SDTMIG v3.2","36","Events","AE","AESDISAB","Persist or Signif Disability/Incapacity","Char","C66742",,"","Record Qualifier","Did the serious event result in persistent or significant disability/incapacity?","Perm"
"SDTMIG v3.2","37","Events","AE","AESDTH","Results in Death","Char","C66742",,"","Record Qualifier","Did the serious event result in death?","Perm"
"SDTMIG v3.2","38","Events","AE","AESHOSP","Requires or Prolongs Hospitalization","Char","C66742",,"","Record Qualifier","Did the serious event require or prolong hospitalization?","Perm"
"SDTMIG v3.2","39","Events","AE","AESLIFE","Is Life Threatening","Char","C66742",,"","Record Qualifier","Was the serious event life threatening?","Perm"
"SDTMIG v3.2","40","Events","AE","AESOD","Occurred with Overdose","Char","C66742",,"","Record Qualifier","Did the serious event occur with an overdose?","Perm"
"SDTMIG v3.2","41","Events","AE","AESMIE","Other Medically Important Serious Event","Char","C66742",,"","Record Qualifier","Do additional categories for seriousness apply?","Perm"
"SDTMIG v3.2","42","Events","AE","AECONTRT","Concomitant or Additional Trtmnt Given","Char","C66742",,"","Record Qualifier","Was another treatment given because of the occurrence of the event?","Perm"
"SDTMIG v3.2","43","Events","AE","AETOXGR","Standard Toxicity Grade","Char","",,"","Record Qualifier","Toxicity grade according to a standard toxicity scale such as Common Terminology Criteria for Adverse Events v3.0 (CTCAE). Sponsor should specify name of the scale and version used in the metadata (see Assumption 6d). If value is from a numeric scale, represent only the number (e.g., ""2"" and not ""Grade 2"").","Perm"
"SDTMIG v3.2","44","Events","AE","AESTDTC","Start Date/Time of Adverse Event","Char","","ISO 8601","","Timing",,"Exp"
"SDTMIG v3.2","45","Events","AE","AEENDTC","End Date/Time of Adverse Event","Char","","ISO 8601","","Timing",,"Exp"
"SDTMIG v3.2","46","Events","AE","AESTDY","Study Day of Start of Adverse Event","Num","",,"","Timing","Study day of start of adverse event relative to the sponsor-defined RFSTDTC.","Perm"
"SDTMIG v3.2","47","Events","AE","AEENDY","Study Day of End of Adverse Event","Num","",,"","Timing","Study day of end of event relative to the sponsor-defined RFSTDTC.","Perm"
"SDTMIG v3.2","48","Events","AE","AEDUR","Duration of Adverse Event","Char","","ISO 8601","","Timing","Collected duration and unit of an adverse event. Used only if collected on the CRF and not derived from start and end date/times. Example: P1DT2H (for 1 day, 2 hours).","Perm"
"SDTMIG v3.2","49","Events","AE","AEENRF","End Relative to Reference Period","Char","C66728",,"","Timing","Describes the end of the event relative to the sponsor-defined reference period. The sponsor-defined reference period is a continuous period of time defined by a discrete starting point (RFSTDTC) and a discrete ending point (RFENDTC) of the trial.","Perm"
"SDTMIG v3.2","50","Events","AE","AEENRTPT","End Relative to Reference Time Point","Char","C66728",,"","Timing","Identifies the end of the event as being before or after the reference time point defined by variable AEENTPT.","Perm"
"SDTMIG v3.2","51","Events","AE","AEENTPT","End Reference Time Point","Char","",,"","Timing","Description of date/time in ISO 8601 character format of the reference point referred to by AEENRTPT. Examples: ""2003-12-25"" or ""VISIT 2"".","Perm"
"SDTMIG v3.2","1","Events","CE","STUDYID","Study Identifier","Char","",,"","Identifier","Unique identifier for a study.","Req"
"SDTMIG v3.2","2","Events","CE","DOMAIN","Domain Abbreviation","Char","",,"CE","Identifier","Two-character abbreviation for the domain.","Req"
"SDTMIG v3.2","3","Events","CE","USUBJID","Unique Subject Identifier","Char","",,"","Identifier","Identifier used to uniquely identify a subject across all studies for all applications or submissions involving the product.","Req"
"SDTMIG v3.2","4","Events","CE","CESEQ","Sequence Number","Num","",,"","Identifier","Sequence Number given to ensure uniqueness of subject records within a domain. May be any valid number.","Req"
"SDTMIG v3.2","5","Events","CE","CEGRPID","Group ID","Char","",,"","Identifier","Used to tie together a block of related records for a subject within a domain.","Perm"
"SDTMIG v3.2","6","Events","CE","CEREFID","Reference ID","Char","",,"","Identifier","Internal or external identifier.","Perm"
"SDTMIG v3.2","7","Events","CE","CESPID","Sponsor-Defined Identifier","Char","",,"","Identifier","Sponsor-defined reference number. Perhaps pre-printed on the CRF as an explicit line identifier or defined in the sponsor's operational database. Example: Line number on a CRF page.","Perm"
"SDTMIG v3.2","8","Events","CE","CETERM","Reported Term for the Clinical Event","Char","",,"","Topic","Term for the medical condition or event. Most likely pre-printed on CRF.","Req"
"SDTMIG v3.2","9","Events","CE","CEDECOD","Dictionary-Derived Term","Char","",,"","Synonym Qualifier","Controlled terminology for the name of the clinical event. The sponsor is expected to provide the dictionary name and version used to map the terms utilizing the define.xml external codelist attributes","Perm"
"SDTMIG v3.2","10","Events","CE","CECAT","Category for Clinical Event","Char","",,"","Grouping Qualifier","Used to define a category of related records.","Perm"
"SDTMIG v3.2","11","Events","CE","CESCAT","Subcategory for Clinical Event","Char","",,"","Grouping Qualifier","A further categorization of the condition or event.","Perm"
"SDTMIG v3.2","12","Events","CE","CEPRESP","Clinical Event Pre-Specified","Char","C66742",,"","Variable Qualifier","Used to indicate whether the Event in CETERM was pre-specified. Value is Y for pre-specified events, null for spontaneously reported events.","Perm"
"SDTMIG v3.2","13","Events","CE","CEOCCUR","Clinical Event Occurrence","Char","C66742",,"","Record Qualifier","Used when the occurrence of specific events is solicited to indicate whether or not a clinical event occurred. Values are null for spontaneously reported events.","Perm"
"SDTMIG v3.2","14","Events","CE","CESTAT","Completion Status","Char","C66789",,"","Record Qualifier","The status indicates that a question from a pre-specified list was not answered.","Perm"
"SDTMIG v3.2","15","Events","CE","CEREASND","Reason Clinical Event Not Collected","Char","",,"","Record Qualifier","Describes the reason clinical event data was not collected. Used in conjunction with CESTAT when value is NOT DONE.","Perm"
"SDTMIG v3.2","16","Events","CE","CEBODSYS","Body System or Organ Class","Char","",,"","Record Qualifier","Dictionary-derived. Body system or organ class that is involved in an event or measurement from a standard hierarchy (e.g., MedDRA). When using a multi-axial dictionary such as MedDRA, this should contain the SOC used for the sponsor's analyses and summary tables which may not necessarily be the primary SOC.","Perm"
"SDTMIG v3.2","17","Events","CE","CESEV","Severity/Intensity","Char","",,"","Record Qualifier","The severity or intensity of the event. Examples: MILD, MODERATE, SEVERE","Perm"
"SDTMIG v3.2","18","Events","CE","CEDTC","Date/Time of Event Collection","Char","","ISO 8601","","Timing",,"Perm"
"SDTMIG v3.2","19","Events","CE","CESTDTC","Start Date/Time of Clinical Event","Char","","ISO 8601","","Timing",,"Perm"
"SDTMIG v3.2","20","Events","CE","CEENDTC","End Date/Time of Clinical Event","Char","","ISO 8601","","Timing",,"Perm"
"SDTMIG v3.2","21","Events","CE","CEDY","Study Day of Event Collection","Num","",,"","Timing","1. Study day of clinical event collection, measured as integer days. 2. Algorithm for calculations must be relative to the sponsor-defined RFSTDTC variable in Demographics. This formula should be consistent across the submission.","Perm"
"SDTMIG v3.2","22","Events","CE","CESTRF","Start Relative to Reference Period","Char","C66728",,"","Timing","Describes the start of the clinical event relative to the sponsor-defined reference period. The sponsor-defined reference period is a continuous period of time defined by a discrete starting point and a discrete ending point (represented by RFSTDTC and RFENDTC in Demographics).","Perm"
"SDTMIG v3.2","23","Events","CE","CEENRF","End Relative to Reference Period","Char","C66728",,"","Timing","Describes the end of the event relative to the sponsor-defined reference period. The sponsor-defined reference period is a continuous period of time defined by a discrete starting point and a discrete ending point (represented by RFSTDTC and RFENDTC in Demographics).","Perm"
"SDTMIG v3.2","24","Events","CE","CESTRTPT","Start Relative to Reference Time Point","Char","C66728",,"","Timing","Identifies the start of the observation as being before or after the reference time point defined by variable CESTTPT.","Perm"
"SDTMIG v3.2","25","Events","CE","CESTTPT","Start Reference Time Point","Char","",,"","Timing","Description or date/time in ISO 8601 character format of the sponsor-defined reference point referred to by --STRTPT. Examples: ""2003-12-15"" or ""VISIT 1"".","Perm"
"SDTMIG v3.2","26","Events","CE","CEENRTPT","End Relative to Reference Time Point","Char","C66728",,"","Timing","Identifies the end of the event as being before or after the reference time point defined by variable CEENTPT.","Perm"
"SDTMIG v3.2","27","Events","CE","CEENTPT","End Reference Time Point","Char","",,"","Timing","Description or date/time in ISO 8601 character format of the reference point referred to by CEENRTPT. Examples: ""2003-12-25"" or ""VISIT 2"".","Perm"
"SDTMIG v3.2","1","Events","DS","STUDYID","Study Identifier","Char","",,"","Identifier","Unique identifier for a study.","Req"
"SDTMIG v3.2","2","Events","DS","DOMAIN","Domain Abbreviation","Char","",,"DS","Identifier","Two-character abbreviation for the domain.","Req"
"SDTMIG v3.2","3","Events","DS","USUBJID","Unique Subject Identifier","Char","",,"","Identifier","Identifier used to uniquely identify a subject across all studies for all applications or submissions involving the product.","Req"
"SDTMIG v3.2","4","Events","DS","DSSEQ","Sequence Number","Num","",,"","Identifier","Sequence Number given to ensure uniqueness of subject records within a domain. May be any valid number.","Req"
"SDTMIG v3.2","5","Events","DS","DSGRPID","Group ID","Char","",,"","Identifier","Used to tie together a block of related records in a single domain for a subject.","Perm"
"SDTMIG v3.2","6","Events","DS","DSREFID","Reference ID","Char","",,"","Identifier","Internal or external identifier.","Perm"
"SDTMIG v3.2","7","Events","DS","DSSPID","Sponsor-Defined Identifier","Char","",,"","Identifier","Sponsor-defined reference number. Perhaps pre-printed on the CRF as an explicit line identifier or defined in the sponsor's operational database. Example: Line number on a Disposition page.","Perm"
"SDTMIG v3.2","8","Events","DS","DSTERM","Reported Term for the Disposition Event","Char","",,"","Topic","Verbatim name of the event or protocol milestone. Some terms in DSTERM will match DSDECOD, but others, such as ""Subject moved"" will map to controlled terminology in DSDECOD, such as ""LOST TO FOLLOW-UP.""","Req"
"SDTMIG v3.2","9","Events","DS","DSDECOD","Standardized Disposition Term","Char","C66727",,"","Synonym Qualifier","Controlled terminology for the name of disposition event or protocol milestone. Examples of protocol milestones: INFORMED CONSENT OBTAINED, RANDOMIZED","Req"
"SDTMIG v3.2","10","Events","DS","DSCAT","Category for Disposition Event","Char","C74558",,"","Grouping Qualifier","Used to define a category of related records. DSCAT is now an ""Expected"" variable. DSCAT was permissible in SDTMIG 3.1.1 and earlier versions. The change from ""permissible"" to ""expected"" is based on the requirement to distinguish protocol milestones and/or other events from disposition events. DSCAT may be null if there are only ""disposition events""; however, it is recommended that DSCAT always be populated.","Exp"
"SDTMIG v3.2","11","Events","DS","DSSCAT","Subcategory for Disposition Event","Char","",,"","Grouping Qualifier","A further categorization of disposition event.","Perm"
"SDTMIG v3.2","12","Events","DS","EPOCH","Epoch","Char","C99079",,"","Timing","EPOCH may be used when DSCAT = ""DISPOSITION EVENT"". Examples: SCREENING, TREATMENT, FOLLOW-UP","Perm"
"SDTMIG v3.2","13","Events","DS","DSDTC","Date/Time of Collection","Char","","ISO 8601","","Timing",,"Perm"
"SDTMIG v3.2","14","Events","DS","DSSTDTC","Start Date/Time of Disposition Event","Char","","ISO 8601","","Timing",,"Exp"
"SDTMIG v3.2","15","Events","DS","DSSTDY","Study Day of Start of Disposition Event","Num","",,"","Timing","Study day of start of event relative to the sponsor-defined RFSTDTC.","Perm"
"SDTMIG v3.2","1","Events","DV","STUDYID","Study Identifier","Char","",,"","Identifier","Unique identifier for a study.","Req"
"SDTMIG v3.2","2","Events","DV","DOMAIN","Domain Abbreviation","Char","",,"DV","Identifier","Two-character abbreviation for the domain.","Req"
"SDTMIG v3.2","3","Events","DV","USUBJID","Unique Subject Identifier","Char","",,"","Identifier","Identifier used to uniquely identify a subject across all studies for all applications or submissions involving the product.","Req"
"SDTMIG v3.2","4","Events","DV","DVSEQ","Sequence Number","Num","",,"","Identifier","Sequence Number given to ensure uniqueness of subject records within a domain. May be any valid number.","Req"
"SDTMIG v3.2","5","Events","DV","DVREFID","Reference ID","Char","",,"","Identifier","Internal or external identifier.","Perm"
"SDTMIG v3.2","6","Events","DV","DVSPID","Sponsor-Defined Identifier","Char","",,"","Identifier","Sponsor-defined reference number. Perhaps pre-printed on the CRF as an explicit line identifier or defined in the sponsor's operational database. Example: Line number on a CRF page.","Perm"
"SDTMIG v3.2","7","Events","DV","DVTERM","Protocol Deviation Term","Char","",,"","Topic","Verbatim name of the protocol deviation criterion. Example: IVRS PROCESS DEVIATION - NO DOSE CALL PERFORMED. The DVTERM values will map to the controlled terminology in DVDECOD, such as TREATMENT DEVIATION.","Req"
"SDTMIG v3.2","8","Events","DV","DVDECOD","Protocol Deviation Coded Term","Char","",,"","Synonym Qualifier","Controlled terminology for the name of the protocol deviation. Examples: SUBJECT NOT WITHDRAWN AS PER PROTOCOL, SELECTION CRITERIA NOT MET, EXCLUDED CONCOMITANT MEDICATION, TREATMENT DEVIATION.","Perm"
"SDTMIG v3.2","9","Events","DV","DVCAT","Category for Protocol Deviation","Char","",,"","Grouping Qualifier","Category of the protocol deviation criterion.","Perm"
"SDTMIG v3.2","10","Events","DV","DVSCAT","Subcategory for Protocol Deviation","Char","",,"","Grouping Qualifier","A further categorization of the protocol deviation.","Perm"
"SDTMIG v3.2","11","Events","DV","EPOCH","Epoch","Char","C99079",,"","Timing","Epoch associated with the start date/time of the deviation. Examples: TREATMENT PHASE, SCREENING, and FOLLOW-UP.","Perm"
"SDTMIG v3.2","12","Events","DV","DVSTDTC","Start Date/Time of Deviation","Char","","ISO 8601","","Timing","Start date/time of deviation represented in ISO 8601 character format.","Perm"
"SDTMIG v3.2","13","Events","DV","DVENDTC","End Date/Time of Deviation","Char","","ISO 8601","","Timing","End date/time of deviation represented in ISO 8601 character format.","Perm"
"SDTMIG v3.2","1","Events","HO","STUDYID","Study Identifier","Char","",,"","Identifier","Unique identifier for a study.","Req"
"SDTMIG v3.2","2","Events","HO","DOMAIN","Domain Abbreviation","Char","",,"HO","Identifier","Two-character abbreviation for the domain.","Req"
"SDTMIG v3.2","3","Events","HO","USUBJID","Unique Subject Identifier","Char","",,"","Identifier","Identifier used to uniquely identify a subject across all studies for all applications or submissions involving the product.","Req"
"SDTMIG v3.2","4","Events","HO","HOSEQ","Sequence Number","Num","",,"","Identifier","Sequence Number given to ensure uniqueness of subject records within a domain. May be any valid number.","Req"
"SDTMIG v3.2","5","Events","HO","HOGRPID","Group ID","Char","",,"","Identifier","Used to tie together a block of related records in a single domain for a subject.","Perm"
"SDTMIG v3.2","6","Events","HO","HOREFID","Reference ID","Char","",,"","Identifier","Internal or external healthcare encounter identifier.","Perm"
"SDTMIG v3.2","7","Events","HO","HOSPID","Sponsor-Defined Identifier","Char","",,"","Identifier","Sponsor-defined identifier. It may be pre-printed on the CRF as an explicit line identifier or defined in the sponsor's operational database. Example: Line number on a Healthcare encounters page.","Perm"
"SDTMIG v3.2","8","Events","HO","HOTERM","Reported Term for the Healthcare Encounter","Char","",,"","Topic","Verbatim or preprinted CRF term for the healthcare encounter.","Req"
"SDTMIG v3.2","9","Events","HO","HODECOD","Dictionary-Derived Term for the Healthcare Encounter","Char","",,"","Synonym Qualifier","Dictionary or sponsor-defined derived text description of HOTERM or the modified topic variable (HOMODIFY).","Perm"
"SDTMIG v3.2","10","Events","HO","HOCAT","Category for Healthcare Encounter","Char","",,"","Grouping Qualifier","Used to define a category of topic-related values.","Perm"
"SDTMIG v3.2","11","Events","HO","HOSCAT","Subcategory for Healthcare Encounter","Char","",,"","Grouping Qualifier","A further categorization of HOCAT values.","Perm"
"SDTMIG v3.2","12","Events","HO","HOPRESP","Pre-Specified Healthcare Encounter","Char","C66742",,"","Record Qualifier","A value of ""Y"" indicates that this healthcare encounter event was pre-specified on the CRF. Values are null for spontaneously reported events (i.e., those collected as free-text verbatim terms)","Perm"
"SDTMIG v3.2","13","Events","HO","HOOCCUR","Healthcare Encounter Occurrence","Char","C66742",,"","Record Qualifier","Used when the occurrence of specific healthcare encounters is solicited to indicate whether or not an encounter occurred. Values are null for spontaneously reported events.","Perm"
"SDTMIG v3.2","14","Events","HO","HOSTAT","Completion Status","Char","C66789",,"","Record Qualifier","The status indicates that the pre-specified question was not answered.","Perm"
"SDTMIG v3.2","15","Events","HO","HOREASND","Reason Healthcare Encounter Not Done","Char","",,"","Record Qualifier","Describes the reason data for a pre-specified event was not collected. Used in conjunction with HOSTAT when value is NOT DONE.","Perm"
"SDTMIG v3.2","16","Events","HO","HODTC","Date/Time of Event Collection","Char","","ISO 8601","","Timing","Collection date and time of the healthcare encounter.","Perm"
"SDTMIG v3.2","17","Events","HO","HOSTDTC","Start Date/Time of Healthcare Encounter","Char","","ISO 8601","","Timing","Start date/time of the healthcare encounter (e.g., date of admission).","Exp"
"SDTMIG v3.2","18","Events","HO","HOENDTC","End Date/Time of Healthcare Encounter","Char","","ISO 8601","","Timing","End date/time of the healthcare encounter (date of discharge).","Perm"
"SDTMIG v3.2","19","Events","HO","HODY","Study Day of Event Collection","Num","",,"","Timing","Study day of event collection relative to the sponsor-defined RFSTDTC.","Perm"
"SDTMIG v3.2","20","Events","HO","HOSTDY","Study Day of Start of Healthcare Encounter","Num","",,"","Timing","Study day of the start of the healthcare encounter relative to the sponsor-defined RFSTDTC.","Perm"
"SDTMIG v3.2","21","Events","HO","HOENDY","Study Day of End of Healthcare Encounter","Num","",,"","Timing","Study day of the end of the healthcare encounter relative to the sponsor-defined RFSTDTC.","Perm"
"SDTMIG v3.2","22","Events","HO","HODUR","Duration of Healthcare Encounter","Char","","ISO 8601","","Timing","Collected duration of the healthcare encounter. Used only if collected on the CRF and not derived from the start and end date/times. Example: P1DT2H (for 1 day, 2 hours).","Perm"
"SDTMIG v3.2","23","Events","HO","HOSTRTPT","Start Relative to Reference Time Point","Char","C66728",,"","Timing","Identifies the start of the observation as being before or after the sponsor-defined reference time point defined by variable --STTPT.","Perm"
"SDTMIG v3.2","24","Events","HO","HOSTTPT","Start Reference Time Point","Char","",,"","Timing","Description or date/time in ISO 8601 character format of the sponsor-defined reference point referred to by STRTPT. Examples: ""2003-12-15"" or ""VISIT 1"".","Perm"
"SDTMIG v3.2","25","Events","HO","HOENRTPT","End Relative to Reference Time Point","Char","C66728",,"","Timing","Identifies the end of the event as being before or after the reference time point defined by variable HOENTPT.","Perm"
"SDTMIG v3.2","26","Events","HO","HOENTPT","End Reference Time Point","Char","",,"","Timing","Description or date/time in ISO 8601 character format of the reference point referred to by HOENRTPT. Examples: ""2003-12-25"" or ""VISIT 2"".","Perm"
"SDTMIG v3.2","1","Events","MH","STUDYID","Study Identifier","Char","",,"","Identifier","Unique identifier for a study.","Req"
"SDTMIG v3.2","2","Events","MH","DOMAIN","Domain Abbreviation","Char","",,"MH","Identifier","Two-character abbreviation for the domain.","Req"
"SDTMIG v3.2","3","Events","MH","USUBJID","Unique Subject Identifier","Char","",,"","Identifier","Identifier used to uniquely identify a subject across all studies for all applications or submissions involving the product.","Req"
"SDTMIG v3.2","4","Events","MH","MHSEQ","Sequence Number","Num","",,"","Identifier","Sequence Number given to ensure uniqueness of subject records within a domain. May be any valid number.","Req"
"SDTMIG v3.2","5","Events","MH","MHGRPID","Group ID","Char","",,"","Identifier","Used to tie together a block of related records in a single domain for a subject.","Perm"
"SDTMIG v3.2","6","Events","MH","MHREFID","Reference ID","Char","",,"","Identifier","Internal or external medical history identifier.","Perm"
"SDTMIG v3.2","7","Events","MH","MHSPID","Sponsor-Defined Identifier","Char","",,"","Identifier","Sponsor-defined reference number. Perhaps pre-printed on the CRF as an explicit line identifier or defined in the sponsor's operational database. Example: Line number on a Medical History page.","Perm"
"SDTMIG v3.2","8","Events","MH","MHTERM","Reported Term for the Medical History","Char","",,"","Topic","Verbatim or preprinted CRF term for the medical condition or event.","Req"
"SDTMIG v3.2","9","Events","MH","MHMODIFY","Modified Reported Term","Char","",,"","Synonym Qualifier","If MHTERM is modified to facilitate coding, then MHMODIFY will contain the modified text.","Perm"
"SDTMIG v3.2","10","Events","MH","MHDECOD","Dictionary-Derived Term","Char","",,"","Synonym Qualifier","Dictionary-derived text description of MHTERM or MHMODIFY. Equivalent to the Preferred Term (PT in MedDRA). The sponsor is expected to provide the dictionary name and version used to map the terms utilizing the define.xml external codelist attributes.","Perm"
"SDTMIG v3.2","11","Events","MH","MHCAT","Category for Medical History","Char","",,"","Grouping Qualifier","Used to define a category of related records. Examples: CARDIAC or GENERAL","Perm"
"SDTMIG v3.2","12","Events","MH","MHSCAT","Subcategory for Medical History","Char","",,"","Grouping Qualifier","A further categorization of the condition or event.","Perm"
"SDTMIG v3.2","13","Events","MH","MHPRESP","Medical History Event Pre-Specified","Char","C66742",,"","Variable Qualifier","A value of ""Y"" indicates that this medical history event was pre-specified on the CRF. Values are null for spontaneously reported events (i.e., those collected as free-text verbatim terms)","Perm"
"SDTMIG v3.2","14","Events","MH","MHOCCUR","Medical History Occurrence","Char","C66742",,"","Record Qualifier","Used when the occurrence of specific medical history conditions is solicited to indicate whether or not (Y/N) a medical condition (MHTERM) had ever occurred. Values are null for spontaneously reported events.","Perm"
"SDTMIG v3.2","15","Events","MH","MHSTAT","Completion Status","Char","C66789",,"","Record Qualifier","The status indicates that the pre-specified question was not asked/answered.","Perm"
"SDTMIG v3.2","16","Events","MH","MHREASND","Reason Medical History Not Done or Not Occurred","Char","",,"","Record Qualifier","Reason the question was not asked/answered or an intervention did not occur. Used in conjunction with negation indicators --STAT of 'NOT DONE' or --OCCUR of 'N'","Perm"
"SDTMIG v3.2","17","Events","MH","MHBODSYS","Body System or Organ Class","Char","",,"","Record Qualifier","Dictionary-derived. Body system or organ class that is involved in an event or measurement from a standard hierarchy (e.g., MedDRA). When using a multi-axial dictionary such as MedDRA, this should contain the SOC used for the sponsor's analyses and summary tables which may not necessarily be the primary SOC.","Perm"
"SDTMIG v3.2","18","Events","MH","MHDTC","Date/Time of History Collection","Char","","ISO 8601","","Timing",,"Perm"
"SDTMIG v3.2","19","Events","MH","MHSTDTC","Start Date/Time of Medical History Event","Char","","ISO 8601","","Timing",,"Perm"
"SDTMIG v3.2","20","Events","MH","MHENDTC","End Date/Time of Medical History Event","Char","","ISO 8601","","Timing",,"Perm"
"SDTMIG v3.2","21","Events","MH","MHDY","Study Day of History Collection","Num","",,"","Timing","1. Study day of medical history collection, measured as integer days. 2. Algorithm for calculations must be relative to the sponsor-defined RFSTDTC variable in Demographics. This formula should be consistent across the submission.","Perm"
"SDTMIG v3.2","22","Events","MH","MHENRF","End Relative to Reference Period","Char","C66728",,"","Timing","Describes the end of the event relative to the sponsor-defined reference period. The sponsor-defined reference period is a continuous period of time defined by a discrete starting point and a discrete ending point (represented by RFSTDTC and RFENDTC in Demographics)","Perm"
"SDTMIG v3.2","23","Events","MH","MHENRTPT","End Relative to Reference Time Point","Char","",,"AFTER; BEFORE; COINCIDENT; ONGOING; U","Timing","Identifies the end of the event as being before or after the reference time point defined by variable MHENTPT.","Perm"
"SDTMIG v3.2","24","Events","MH","MHENTPT","End Reference Time Point","Char","",,"","Timing","Description or date/time in ISO 8601 character format of the reference point referred to by MHENRTPT. Examples: ""2003-12-25"" or ""VISIT 2"".","Perm"
"SDTMIG v3.2","1","Findings","DA","STUDYID","Study Identifier","Char","",,"","Identifier","Unique identifier for a study within the submission.","Req"
"SDTMIG v3.2","2","Findings","DA","DOMAIN","Domain Abbreviation","Char","",,"DA","Identifier","Two-character abbreviation for the domain.","Req"
"SDTMIG v3.2","3","Findings","DA","USUBJID","Unique Subject Identifier","Char","",,"","Identifier","Unique subject identifier within the submission.","Req"
"SDTMIG v3.2","4","Findings","DA","DASEQ","Sequence Number","Num","",,"","Identifier","Sequence Number given to ensure uniqueness of subject records within a domain. May be any valid number.","Req"
"SDTMIG v3.2","5","Findings","DA","DAGRPID","Group ID","Char","",,"","Identifier","Used to tie together a block of related records in a single domain for a subject.","Perm"
"SDTMIG v3.2","6","Findings","DA","DAREFID","Reference ID","Char","",,"","Identifier","Internal or external identifier such as label number.","Perm"
"SDTMIG v3.2","7","Findings","DA","DASPID","Sponsor-Defined Identifier","Char","",,"","Identifier","Sponsor-defined reference number. Perhaps pre-printed on the CRF as an explicit line identifier or defined in the sponsor's operational database. Examples: Line number on the Drug Accountability page, drug label code.","Perm"
"SDTMIG v3.2","8","Findings","DA","DATESTCD","Short Name of Accountability Assessment","Char","",,"","Topic","Short character value for DATEST used as a column name when converting a dataset from a vertical format to a horizontal format. The short value can be up to 8 characters and cannot begin with a number or contain characters other than letters, numbers or underscores. Example: DISPAMT, RETAMT.","Req"
"SDTMIG v3.2","9","Findings","DA","DATEST","Name of Accountability Assessment","Char","",,"","Synonym Qualifier","Verbatim name, corresponding to the topic variable, of the test or examination used to obtain the drug accountability assessment. The value in DATEST cannot be longer than 40 characters. Example: Dispensed Amount, Returned Amount.","Req"
"SDTMIG v3.2","10","Findings","DA","DACAT","Category of Assessment","Char","",,"","Grouping Qualifier","Used to define a category of related records. Examples: STUDY MEDICATION, RESCUE MEDICATION.","Perm"
"SDTMIG v3.2","11","Findings","DA","DASCAT","Subcategory of Assessment","Char","",,"","Grouping Qualifier","Used to define a further categorization level for a group of related records.","Perm"
"SDTMIG v3.2","12","Findings","DA","DAORRES","Assessment Result in Original Units","Char","",,"","Result Qualifier","Result of the Drug Accountability assessment as originally received or collected.","Exp"
"SDTMIG v3.2","13","Findings","DA","DAORRESU","Original Units","Char","C71620",,"","Variable Qualifier","Unit for DAORRES.","Perm"
"SDTMIG v3.2","14","Findings","DA","DASTRESC","Assessment Result in Std Format","Char","",,"","Result Qualifier","Contains the result value for all Drug Accountability assessments, copied or derived from DAORRES in a standard format or in standard units. DASTRESC should store all results or findings in character format; if results are numeric, they should also be stored in numeric format in DASTRESN.","Exp"
"SDTMIG v3.2","15","Findings","DA","DASTRESN","Numeric Result/Finding in Standard Units","Num","",,"","Result Qualifier","Used for continuous or numeric results or findings in standard format; copied in numeric format from DASTRESC. DASTRESN should store all numeric test results or findings.","Perm"
"SDTMIG v3.2","16","Findings","DA","DASTRESU","Assessment Standard Units","Char","C71620",,"","Variable Qualifier","Standardized units used for DASTRESC and DASTRESN.","Perm"
"SDTMIG v3.2","17","Findings","DA","DASTAT","Completion Status","Char","C66789",,"","Record Qualifier","Used to indicate that a drug accountability assessment was not done. Should be null or have a value of NOT DONE.","Perm"
"SDTMIG v3.2","18","Findings","DA","DAREASND","Reason Not Performed","Char","",,"","Record Qualifier","Reason not done. Used in conjunction with DASTAT when value is NOT DONE.","Perm"
"SDTMIG v3.2","19","Findings","DA","VISITNUM","Visit Number","Num","",,"","Timing","1. Clinical encounter number. 2. Numeric version of VISIT, used for sorting.","Exp"
"SDTMIG v3.2","20","Findings","DA","VISIT","Visit Name","Char","",,"","Timing","1. Protocol-defined description of clinical encounter 2. May be used in addition to VISITNUM and/or VISITDY","Perm"
"SDTMIG v3.2","21","Findings","DA","VISITDY","Planned Study Day of Visit","Num","",,"","Timing","Planned study day of the visit based upon RFSTDTC in Demographics.","Perm"
"SDTMIG v3.2","22","Findings","DA","DADTC","Date/Time of Accountability Assessment","Char","","ISO 8601","","Timing",,"Exp"
"SDTMIG v3.2","23","Findings","DA","DADY","Study Day of Accountability Assessment","Num","",,"","Timing","1. Study day of drug accountability assessment, measured as integer days. 2. Algorithm for calculations must be relative to the sponsor-defined RFSTDTC variable in Demographics.","Perm"
"SDTMIG v3.2","1","Findings","DD","STUDYID","Study Identifier","Char","",,"","Identifier","Unique identifier for a study.","Req"
"SDTMIG v3.2","2","Findings","DD","DOMAIN","Domain Abbreviation","Char","",,"DD","Identifier","Two-character abbreviation for the domain.","Req"
"SDTMIG v3.2","3","Findings","DD","USUBJID","Unique Subject Identifier","Char","",,"","Identifier","Identifier used to uniquely identify a subject across all studies for all applications or submissions involving the product.","Req"
"SDTMIG v3.2","4","Findings","DD","DDSEQ","Sequence Number","Num","",,"","Identifier","Sequence number given to ensure uniqueness of subject records within a domain. May be any valid number.","Req"
"SDTMIG v3.2","5","Findings","DD","DDTESTCD","Death Detail Assessment Short Name","Char","",,"","Topic","Short name of the measurement, test, or examination described in DDTEST. It can be used as a column name when converting a dataset from a vertical to a horizontal format. The value in DDTESTCD cannot be longer than 8 characters, nor can it start with a number (e.g., ""1TEST"" is not valid). DDTESTCD cannot contain characters other than letters, numbers, or underscores. Examples: DIAGPRIM, DIAGSEC, DTHWIT","Req"
"SDTMIG v3.2","6","Findings","DD","DDTEST","Death Detail Assessment Name","Char","",,"","Synonym Qualifier","Long name for DDTESTCD. The value in DDTEST cannot be longer than 40 characters. Examples: Primary Diagnosis, Secondary Diagnosis, Was Death Witnessed?","Req"
"SDTMIG v3.2","7","Findings","DD","DDORRES","Result or Finding as Collected","Char","",,"","Result Qualifier","Result of the test defined in DDTEST, as originally received or collected.","Exp"
"SDTMIG v3.2","8","Findings","DD","DDSTRESC","Character Result/Finding in Std Format","Char","",,"","Result Qualifier","Contains the result or finding copied or derived from DDORRES in a standard format.","Exp"
"SDTMIG v3.2","9","Findings","DD","DDRESCAT","Result Category","Char","",,"","Variable Qualifier","Used to categorize the result of a finding. Examples: TREATMENT RELATED, NONTREATMENT RELATED, UNDETERMINED, ACCIDENTAL","Perm"
"SDTMIG v3.2","10","Findings","DD","DDEVAL","Evaluator","Char","C78735",,"","Record Qualifier","Role of the person who provided the evaluation.","Perm"
"SDTMIG v3.2","11","Findings","DD","DDDTC","Date/Time of Collection","Char","","ISO 8601","","Timing","Date/time of collection of the diagnosis or other death assessment data in ISO 8601 format. This is not necessarily the date of death.","Exp"
"SDTMIG v3.2","12","Findings","DD","DDDY","Study Day of Collection","Num","",,"","Timing","Study day of the collection, in integer days.  The algorithm for calculations must be relative to the sponsor-defined RFSTDTC variable in the Demographics (DM) domain.","Perm"
"SDTMIG v3.2","1","Findings","EG","STUDYID","Study Identifier","Char","",,"","Identifier","Unique identifier for a study.","Req"
"SDTMIG v3.2","2","Findings","EG","DOMAIN","Domain Abbreviation","Char","",,"EG","Identifier","Two-character abbreviation for the domain.","Req"
"SDTMIG v3.2","3","Findings","EG","USUBJID","Unique Subject Identifier","Char","",,"","Identifier","Identifier used to uniquely identify a subject across all studies for all applications or submissions involving the product.","Req"
"SDTMIG v3.2","4","Findings","EG","EGSEQ","Sequence Number","Num","",,"","Identifier","Sequence Number given to ensure uniqueness of subject records within a domain. May be any valid number.","Req"
"SDTMIG v3.2","5","Findings","EG","EGGRPID","Group ID","Char","",,"","Identifier","Used to tie together a block of related records in a single domain for a subject.","Perm"
"SDTMIG v3.2","6","Findings","EG","EGREFID","ECG Reference ID","Char","",,"","Identifier","Internal or external ECG identifier. Example: UUID.","Perm"
"SDTMIG v3.2","7","Findings","EG","EGSPID","Sponsor-Defined Identifier","Char","",,"","Identifier","Sponsor-defined reference number. Perhaps pre-printed on the CRF as an explicit line identifier or defined in the sponsor's operational database. Example: Line number from the ECG page.","Perm"
"SDTMIG v3.2","8","Findings","EG","EGTESTCD","ECG Test or Examination Short Name","Char","C71153",,"","Topic","Short name of the measurement, test, or examination described in EGTEST. It can be used as a column name when converting a dataset from a vertical to a horizontal format. The value in EGTESTCD cannot be longer than 8 characters, nor can it start with a number (e.g., ""1TEST""). EGTESTCD cannot contain characters other than letters, numbers, or underscores. Examples :PRMEAN, QTMEAN","Req"
"SDTMIG v3.2","9","Findings","EG","EGTEST","ECG Test or Examination Name","Char","C71152",,"","Synonym Qualifier","Verbatim name of the test or examination used to obtain the measurement or finding. The value in EGTEST cannot be longer than 40 characters. Examples: Summary (Mean) PR Duration, Summary (Mean) QT Duration","Req"
"SDTMIG v3.2","10","Findings","EG","EGCAT","Category for ECG","Char","",,"","Grouping Qualifier","Used to categorize ECG observations across subjects. Examples: MEASUREMENT, FINDING, INTERVAL","Perm"
"SDTMIG v3.2","11","Findings","EG","EGSCAT","Subcategory for ECG","Char","",,"","Grouping Qualifier","A further categorization of the ECG.","Perm"
"SDTMIG v3.2","12","Findings","EG","EGPOS","ECG Position of Subject","Char","C71148",,"","Record Qualifier","Position of the subject during a measurement or examination. Examples: SUPINE, STANDING, SITTING.","Perm"
"SDTMIG v3.2","13","Findings","EG","EGORRES","Result or Finding in Original Units","Char","",,"","Result Qualifier","Result of the ECG measurement or finding as originally received or collected. Examples of expected values are 62 or 0.151 when the result is an interval or measurement, or ""ATRIAL FIBRILLATION"" or ""QT PROLONGATION"" when the result is a finding.","Exp"
"SDTMIG v3.2","14","Findings","EG","EGORRESU","Original Units","Char","C71620",,"","Variable Qualifier","Original units in which the data were collected. The unit for EGORRES. Examples: sec or msec.","Perm"
"SDTMIG v3.2","15","Findings","EG","EGSTRESC","Character Result/Finding in Std Format","Char","C71150",,"","Result Qualifier","Contains the result value for all findings, copied or derived from EGORRES in a standard format or standard units. EGSTRESC should store all results or findings in character format; if results are numeric, they should also be stored in numeric format in EGSTRESN. For example, if a test has results of ""NONE"", ""NEG"", and ""NEGATIVE"" in EGORRES and these results effectively have the same meaning, they could be represented in standard format in EGSTRESC as ""NEGATIVE"". For other examples, see general assumptions. Additional examples of result data: SINUS BRADYCARDIA, ATRIAL FLUTTER, ATRIAL FIBRILLATION.","Exp"
"SDTMIG v3.2","16","Findings","EG","EGSTRESN","Numeric Result/Finding in Standard Units","Num","",,"","Result Qualifier","Used for continuous or numeric results or findings in standard format; copied in numeric format from EGSTRESC. EGSTRESN should store all numeric test results or findings.","Perm"
"SDTMIG v3.2","17","Findings","EG","EGSTRESU","Standard Units","Char","C71620",,"","Variable Qualifier","Standardized unit used for EGSTRESC or EGSTRESN.","Perm"
"SDTMIG v3.2","18","Findings","EG","EGSTAT","Completion Status","Char","C66789",,"","Record Qualifier","Used to indicate an ECG was not done, or an ECG measurement was not taken. Should be null if a result exists in EGORRES.","Perm"
"SDTMIG v3.2","19","Findings","EG","EGREASND","Reason ECG Not Performed","Char","",,"","Record Qualifier","Describes why a measurement or test was not performed. Examples: BROKEN EQUIPMENT or SUBJECT REFUSED. Used in conjunction with EGSTAT when value is NOT DONE.","Perm"
"SDTMIG v3.2","20","Findings","EG","EGXFN","ECG External File Path","Char","",,"","Record Qualifier","File name and path for the external ECG Waveform file.","Perm"
"SDTMIG v3.2","21","Findings","EG","EGNAM","Vendor Name","Char","",,"","Record Qualifier","Name or identifier of the laboratory or vendor who provided the test results.","Perm"
"SDTMIG v3.2","22","Findings","EG","EGLEAD","Lead Location Used for Measurement","Char","C74456",,"","Record Qualifier","The lead used for the measurement, examples, V1, V6, aVR, I, II, III.","Perm"
"SDTMIG v3.2","23","Findings","EG","EGMETHOD","Method of ECG Test","Char","C71151",,"","Record Qualifier","Method of the ECG test. Examples: 12 LEAD STANDARD.","Perm"
"SDTMIG v3.2","24","Findings","EG","EGBLFL","Baseline Flag","Char","C66742",,"","Record Qualifier","Indicator used to identify a baseline value. The value should be ""Y"" or null.","Exp"
"SDTMIG v3.2","25","Findings","EG","EGDRVFL","Derived Flag","Char","C66742",,"","Record Qualifier","Used to indicate a derived record. The value should be Y or null. Records which represent the average of other records, or that do not come from the CRF, or are not as originally collected or received are examples of records that would be derived for the submission datasets. If EGDRVFL=Y, then EGORRES could be null, with EGSTRESC, and (if numeric) EGSTRESN having the derived value.","Perm"
"SDTMIG v3.2","26","Findings","EG","EGEVAL","Evaluator","Char","",,"","Record Qualifier","Role of the person who provided the evaluation. Used only for results that are subjective (e.g., assigned by a person or a group). Should be null for records that contain collected or derived data. Examples: INVESTIGATOR, ADJUDICATION COMMITTEE, VENDOR.","Perm"
"SDTMIG v3.2","27","Findings","EG","VISITNUM","Visit Number","Num","",,"","Timing","1. Clinical encounter number. 2. Numeric version of VISIT, used for sorting.","Exp"
"SDTMIG v3.2","28","Findings","EG","VISIT","Visit Name","Char","",,"","Timing","1. Protocol-defined description of clinical encounter. 2. May be used in addition to VISITNUM and/or VISITDY.","Perm"
"SDTMIG v3.2","29","Findings","EG","VISITDY","Planned Study Day of Visit","Num","",,"","Timing","Planned study day of the visit based upon RFSTDTC in Demographics.","Perm"
"SDTMIG v3.2","30","Findings","EG","EGDTC","Date/Time of ECG","Char","","ISO 8601","","Timing","Date of ECG.","Exp"
"SDTMIG v3.2","31","Findings","EG","EGDY","Study Day of ECG","Num","",,"","Timing","1. Study day of the ECG, measured as integer days. 2. Algorithm for calculations must be relative to the sponsor-defined RFSTDTC variable in Demographics.","Perm"
"SDTMIG v3.2","32","Findings","EG","EGTPT","Planned Time Point Name","Char","",,"","Timing","1. Text Description of time when measurement should be taken. 2. This may be represented as an elapsed time relative to a fixed reference point, such as time of last dose. See EGTPTNUM and EGTPTREF. Examples: Start, 5 min post.","Perm"
"SDTMIG v3.2","33","Findings","EG","EGTPTNUM","Planned Time Point Number","Num","",,"","Timing","Numerical version of EGTPT to aid in sorting.","Perm"
"SDTMIG v3.2","34","Findings","EG","EGELTM","Planned Elapsed Time from Time Point Ref","Char","","ISO 8601","","Timing","Planned elapsed time (in ISO 8601) relative to a fixed time point reference (EGTPTREF). Not a clock time or a date time variable. Represented as an ISO 8601 duration. Examples: ""-PT15M"" to represent the period of 15 minutes prior to the reference point indicated by EGTPTREF, or ""PT8H"" to represent the period of 8 hours after the reference point indicated by EGTPTREF.","Perm"
"SDTMIG v3.2","35","Findings","EG","EGTPTREF","Time Point Reference","Char","",,"","Timing","Name of the fixed reference point referred to by EGELTM, EGTPTNUM, and EGTPT. Examples: PREVIOUS DOSE, PREVIOUS MEAL.","Perm"
"SDTMIG v3.2","36","Findings","EG","EGRFTDTC","Date/Time of Reference Time Point","Char","","ISO 8601","","Timing","Date/time of the reference time point, EGTPTREF.","Perm"
"SDTMIG v3.2","1","Findings","IE","STUDYID","Study Identifier","Char","",,"","Identifier","Unique identifier for a study.","Req"
"SDTMIG v3.2","2","Findings","IE","DOMAIN","Domain Abbreviation","Char","",,"IE","Identifier","Two-character abbreviation for the domain.","Req"
"SDTMIG v3.2","3","Findings","IE","USUBJID","Unique Subject Identifier","Char","",,"","Identifier","Identifier used to uniquely identify a subject across all studies for all applications or submissions involving the product.","Req"
"SDTMIG v3.2","4","Findings","IE","IESEQ","Sequence Number","Num","",,"","Identifier","Sequence Number given to ensure uniqueness of subject records within a domain. May be any valid number.","Req"
"SDTMIG v3.2","5","Findings","IE","IESPID","Sponsor-Defined Identifier","Char","",,"","Identifier","Sponsor-defined reference number. Perhaps pre-printed on the CRF as an explicit line identifier or defined in the sponsor's operational database. Example: Inclusion or Exclusion criteria number from CRF.","Perm"
"SDTMIG v3.2","6","Findings","IE","IETESTCD","Inclusion/Exclusion Criterion Short Name","Char","",,"","Topic","Short name of the criterion described in IETEST. The value in IETESTCD cannot be longer than 8 characters, nor can it start with a number (e.g.""1TEST""). IETESTCD cannot contain characters other than letters, numbers, or underscores. Examples: IN01, EX01.","Req"
"SDTMIG v3.2","7","Findings","IE","IETEST","Inclusion/Exclusion Criterion","Char","",,"","Synonym Qualifier","Verbatim description of the inclusion or exclusion criterion that was the exception for the subject within the study. IETEST cannot be longer than 200 characters.","Req"
"SDTMIG v3.2","8","Findings","IE","IECAT","Inclusion/Exclusion Category","Char","C66797",,"","Grouping Qualifier","Used to define a category of related records across subjects.","Req"
"SDTMIG v3.2","9","Findings","IE","IESCAT","Inclusion/Exclusion Subcategory","Char","",,"","Grouping Qualifier","A further categorization of the exception criterion. Can be used to distinguish criteria for a sub-study or for to categorize as a major or minor exceptions. Examples: MAJOR, MINOR.","Perm"
"SDTMIG v3.2","10","Findings","IE","IEORRES","I/E Criterion Original Result","Char","C66742",,"","Result Qualifier","Original response to Inclusion/Exclusion Criterion question. Inclusion or Exclusion criterion met?","Req"
"SDTMIG v3.2","11","Findings","IE","IESTRESC","I/E Criterion Result in Std Format","Char","C66742",,"","Result Qualifier","Response to Inclusion/Exclusion criterion result in standard format.","Req"
"SDTMIG v3.2","12","Findings","IE","VISITNUM","Visit Number","Num","",,"","Timing","1. Clinical encounter number. 2. Numeric version of VISIT, used for sorting.","Perm"
"SDTMIG v3.2","13","Findings","IE","VISIT","Visit Name","Char","",,"","Timing","1. Protocol-defined description of clinical encounter. 2. May be used in addition to VISITNUM and/or VISITDY.","Perm"
"SDTMIG v3.2","14","Findings","IE","VISITDY","Planned Study Day of Visit","Num","",,"","Timing","Planned study day of the visit based upon RFSTDTC in Demographics.","Perm"
"SDTMIG v3.2","15","Findings","IE","IEDTC","Date/Time of Collection","Char","","ISO 8601","","Timing",,"Perm"
"SDTMIG v3.2","16","Findings","IE","IEDY","Study Day of Collection","Num","",,"","Timing","1. Study day of collection of the inclusion/exclusion exceptions, measured as integer days. 2. Algorithm for calculations must be relative to the sponsor-defined RFSTDTC variable in Demographics. This formula should be consistent across the submission.","Perm"
"SDTMIG v3.2","1","Findings","IS","STUDYID","Study Identifier","Char","",,"","Identifier","Unique Identifier for a study.","Req"
"SDTMIG v3.2","2","Findings","IS","DOMAIN","Domain Abbreviation","Char","",,"IS","Identifier","Two-character abbreviation for the domain.","Req"
"SDTMIG v3.2","3","Findings","IS","USUBJID","Unique Subject Identifier","Char","",,"","Identifier","Identifier used to uniquely identify a subject across a submission.","Req"
"SDTMIG v3.2","4","Findings","IS","ISSEQ","Sequence Number","Char","",,"","Identifier","Sequence number given to ensure uniqueness of subject records within a domain. May be any valid number.","Req"
"SDTMIG v3.2","5","Findings","IS","ISGRPID","Group ID","Num","",,"","Identifier","Used to tie together a block of related records in a single domain for a subject.","Perm"
"SDTMIG v3.2","6","Findings","IS","ISREFID","Reference ID","Char","",,"","Identifier","Internal or external specimen identifier.  Example: 458975-01.","Perm"
"SDTMIG v3.2","7","Findings","IS","ISSPID","Sponsor-Defined Identifier","Char","",,"","Identifier","Sponsor-defined identifier.","Perm"
"SDTMIG v3.2","8","Findings","IS","ISTESTCD","Immunogenicity Test/Exam Short Name","Char","",,"","Identifier","Short name of the measurement, test, or examination described in ISTEST. It can be used as a column name when converting a dataset from a vertical to a horizontal format. The value in ISTESTCD cannot be longer than 8 characters, nor can it start with a number. ISTESTCD cannot contain characters other than letters, numbers, or underscores.  Sponsor should first check the lab terminology for the LBTEST/LBTESTCD values until CDISC attaches published controlled terminology.","Req"
"SDTMIG v3.2","9","Findings","IS","ISTEST","Immunogenicity Test or Examination Name","Char","",,"","Topic","Verbatim name of the test or examination used to obtain the measurement or finding. The value in ISTEST cannot be longer than 40 characters.      (Example: Immunoglobulin E). Sponsor should first check the lab terminology for the LBTEST/LBTESTCD values until CDISC attaches published controlled terminology.","Req"
"SDTMIG v3.2","10","Findings","IS","ISCAT","Category for Immunogenicity Test","Char","",,"","Synonym Qualifier","Used to define a category of Topic-variable values across subjects. Example: SEROLOGY","Perm"
"SDTMIG v3.2","11","Findings","IS","ISSCAT","Subcategory for Immunogenicity Test","Char","",,"","Grouping Qualifier","A further categorization of ISCAT.","Perm"
"SDTMIG v3.2","12","Findings","IS","ISORRES","Results or Findings in Original Units","Char","",,"","Result Qualifier","Results of measurement or finding as originally received or collected.","Exp"
"SDTMIG v3.2","13","Findings","IS","ISORRESU","Original Units","Char","C71620",,"","Variable Qualifier","Original units in which the data were collected. The unit for ISORRES. Examples: Index Value, gpELISA, unit/mL.","Exp"
"SDTMIG v3.2","14","Findings","IS","ISSTRESC","Character Results/Findings in Std. Format","Char","",,"","Result Qualifier","Contains the result value for all findings, copied or derived from ISORRES, in a standard format or in standard units.  ISSTRESC should store all results or findings in character format; if results are numeric, they should also be stored in numeric format in ISSTRESN.","Exp"
"SDTMIG v3.2","15","Findings","IS","ISSTRESN","Numeric Results/Findings in Std. Units","Num","",,"","Result Qualifier","Used for continuous or numeric results or findings in standard format; copied in numeric format from ISSTRESC.  ISSTRESN should store all numeric test results or findings.","Exp"
"SDTMIG v3.2","16","Findings","IS","ISSTRESU","Standard Units","Char","C71620",,"","Variable Qualifier","Standardized units used for ISSTRESC and ISSTRESN. Examples: Index Value, gpELISA, unit/mL.","Exp"
"SDTMIG v3.2","17","Findings","IS","ISSTAT","Completion Status","Char","C66789",,"","Record Qualifier","Used to indicate a test was not done. Should be null if a result exists in ISORRES.","Perm"
"SDTMIG v3.2","18","Findings","IS","ISREASND","Reason Not Done","Char","",,"","Record Qualifier","Describes why a measurement or test was not performed. Used in conjunction with ISSTAT when value is NOT DONE.","Perm"
"SDTMIG v3.2","19","Findings","IS","ISNAM","Vendor Name","Char","",,"","Record Qualifier","Name or identifier of the laboratory or vendor who provided the test results","Perm"
"SDTMIG v3.2","20","Findings","IS","ISSPEC","Specimen Type","Char","C78734",,"","Record Qualifier","Defines the types of specimen used for a measurement. Example: SERUM.","Perm"
"SDTMIG v3.2","21","Findings","IS","ISMETHOD","Method of Test or Examination","Char","",,"","Record Qualifier","Method of test or examination. Examples: ELISA, ELISPOT.","Perm"
"SDTMIG v3.2","22","Findings","IS","ISBLFL","Baseline Flag","Char","C66742",,"","Record Qualifier","Indicator used to identify a baseline value.  Should be Y or null.","Perm"
"SDTMIG v3.2","23","Findings","IS","ISLLOQ","Lower Limit of Quantitation","Num","",,"","Variable Qualifier","Indicates the lower limit of quantitation for an assay.  Units will be those used for ISSTRESU.","Exp"
"SDTMIG v3.2","24","Findings","IS","VISITNUM","Visit Number","Num","",,"","Timing","1. Clinical encounter number.  2. Numeric version of VISIT, used for sorting.","Exp"
"SDTMIG v3.2","25","Findings","IS","VISIT","Visit Name","Char","",,"","Timing","1. Protocol-defined description of clinical encounter. 2. May be used in addition to VISITNUM and/or VISITDY.","Perm"
"SDTMIG v3.2","26","Findings","IS","VISITDY","Planned Study Day of Visit","Num","",,"","Timing","Planned study day of the visit based upon RFSTDTC in Demographics.","Perm"
"SDTMIG v3.2","27","Findings","IS","ISDTC","Date/Time of Collection","Char","","ISO 8601","","Timing","Collection date and time of an observation represented in ISO 8601.","Exp"
"SDTMIG v3.2","28","Findings","IS","ISDY","Study Day of Visit/Collection/Exam","Num","",,"","Timing","Actual study day of visit/collection/exam expressed in integer days relative to sponsor- defined RFSTDTC in Demographics.","Perm"
"SDTMIG v3.2","1","Findings","LB","STUDYID","Study Identifier","Char","",,"","Identifier","Unique identifier for a study.","Req"
"SDTMIG v3.2","2","Findings","LB","DOMAIN","Domain Abbreviation","Char","",,"LB","Identifier","Two-character abbreviation for the domain.","Req"
"SDTMIG v3.2","3","Findings","LB","USUBJID","Unique Subject Identifier","Char","",,"","Identifier","Identifier used to uniquely identify a subject across all studies for all applications or submissions involving the product.","Req"
"SDTMIG v3.2","4","Findings","LB","LBSEQ","Sequence Number","Num","",,"","Identifier","Sequence Number given to ensure uniqueness of subject records within a domain. May be any valid number.","Req"
"SDTMIG v3.2","5","Findings","LB","LBGRPID","Group ID","Char","",,"","Identifier","Used to tie together a block of related records in a single domain for a subject.","Perm"
"SDTMIG v3.2","6","Findings","LB","LBREFID","Specimen ID","Char","",,"","Identifier","Internal or external specimen identifier. Example: Specimen ID.","Perm"
"SDTMIG v3.2","7","Findings","LB","LBSPID","Sponsor-Defined Identifier","Char","",,"","Identifier","Sponsor-defined reference number. Perhaps pre-printed on the CRF as an explicit line identifier or defined in the sponsor's operational database. Example: Line number on the Lab page.","Perm"
"SDTMIG v3.2","8","Findings","LB","LBTESTCD","Lab Test or Examination Short Name","Char","C65047",,"","Topic","Short name of the measurement, test, or examination described in LBTEST. It can be used as a column name when converting a dataset from a vertical to a horizontal format. The value in LBTESTCD cannot be longer than 8 characters, nor can it start with a number (e.g.""1TEST""). LBTESTCD cannot contain characters other than letters, numbers, or underscores. Examples: ALT, LDH.","Req"
"SDTMIG v3.2","9","Findings","LB","LBTEST","Lab Test or Examination Name","Char","C67154",,"","Synonym Qualifier","Verbatim name of the test or examination used to obtain the measurement or finding. Note any test normally performed by a clinical laboratory is considered a lab test. The value in LBTEST cannot be longer than 40 characters. Examples: Alanine Aminotransferase, Lactate Dehydrogenase.","Req"
"SDTMIG v3.2","10","Findings","LB","LBCAT","Category for Lab Test","Char","",,"","Grouping Qualifier","Used to define a category of related records across subjects. Examples: such as HEMATOLOGY, URINALYSIS, CHEMISTRY.","Exp"
"SDTMIG v3.2","11","Findings","LB","LBSCAT","Subcategory for Lab Test","Char","",,"","Grouping Qualifier","A further categorization of a test category such as DIFFERENTIAL, COAGULATON, LIVER FUNCTION, ELECTROLYTES.","Perm"
"SDTMIG v3.2","12","Findings","LB","LBORRES","Result or Finding in Original Units","Char","",,"","Result Qualifier","Result of the measurement or finding as originally received or collected.","Exp"
"SDTMIG v3.2","13","Findings","LB","LBORRESU","Original Units","Char","C71620",,"","Variable Qualifier","Original units in which the data were collected. The unit for LBORRES. Example: g/L.","Exp"
"SDTMIG v3.2","14","Findings","LB","LBORNRLO","Reference Range Lower Limit in Orig Unit","Char","",,"","Variable Qualifier","Lower end of reference range for continuous measurements in original units. Should be populated only for continuous results.","Exp"
"SDTMIG v3.2","15","Findings","LB","LBORNRHI","Reference Range Upper Limit in Orig Unit","Char","",,"","Variable Qualifier","Upper end of reference range for continuous measurements in original units. Should be populated only for continuous results.","Exp"
"SDTMIG v3.2","16","Findings","LB","LBSTRESC","Character Result/Finding in Std Format","Char","C102580",,"","Result Qualifier","Contains the result value for all findings, copied or derived from LBORRES in a standard format or standard units. LBSTRESC should store all results or findings in character format; if results are numeric, they should also be stored in numeric format in LBSTRESN. For example, if a test has results ""NONE"", ""NEG"", and ""NEGATIVE"" in LBORRES and these results effectively have the same meaning, they could be represented in standard format in LBSTRESC as ""NEGATIVE"". For other examples, see general assumptions.","Exp"
"SDTMIG v3.2","17","Findings","LB","LBSTRESN","Numeric Result/Finding in Standard Units","Num","",,"","Result Qualifier","Used for continuous or numeric results or findings in standard format; copied in numeric format from LBSTRESC. LBSTRESN should store all numeric test results or findings.","Exp"
"SDTMIG v3.2","18","Findings","LB","LBSTRESU","Standard Units","Char","C71620",,"","Variable Qualifier","Standardized unit used for LBSTRESC or LBSTRESN.","Exp"
"SDTMIG v3.2","19","Findings","LB","LBSTNRLO","Reference Range Lower Limit-Std Units","Num","",,"","Variable Qualifier","Lower end of reference range for continuous measurements for LBSTRESC/LBSTRESN in standardized units. Should be populated only for continuous results.","Exp"
"SDTMIG v3.2","20","Findings","LB","LBSTNRHI","Reference Range Upper Limit-Std Units","Num","",,"","Variable Qualifier","Upper end of reference range for continuous measurements in standardized units. Should be populated only for continuous results.","Exp"
"SDTMIG v3.2","21","Findings","LB","LBSTNRC","Reference Range for Char Rslt-Std Units","Char","",,"","Variable Qualifier","For normal range values that are character in ordinal scale or if categorical ranges were supplied (e.g., ""-1 to +1"", ""NEGATIVE TO TRACE"").","Perm"
"SDTMIG v3.2","22","Findings","LB","LBNRIND","Reference Range Indicator","Char","C78736",,"","Variable Qualifier","1. Indicates where the value falls with respect to reference range defined by LBORNRLO and LBORNRHI, LBSTNRLO and LBSTNRHI, or by LBSTNRC. Examples: NORMAL, ABNORMAL, HIGH, LOW. 2. Sponsors should specify in the study metadata (Comments column in the define.xml) whether LBNRIND refers to the original or standard reference ranges and results. 3. Should not be used to indicate clinical significance.","Exp"
"SDTMIG v3.2","23","Findings","LB","LBSTAT","Completion Status","Char","C66789",,"","Record Qualifier","Used to indicate exam not done. Should be null if a result exists in LBORRES.","Perm"
"SDTMIG v3.2","24","Findings","LB","LBREASND","Reason Test Not Done","Char","",,"","Record Qualifier","Describes why a measurement or test was not performed such as BROKEN EQUIPMENT, SUBJECT REFUSED, or SPECIMEN LOST. Used in conjunction with LBSTAT when value is NOT DONE.","Perm"
"SDTMIG v3.2","25","Findings","LB","LBNAM","Vendor Name","Char","",,"","Record Qualifier","The name or identifier of the laboratory that performed the test.","Perm"
"SDTMIG v3.2","26","Findings","LB","LBLOINC","LOINC Code","Char","",,"","Synonym Qualifier","1. Dictionary-derived LOINC Code for LBTEST. 2. The sponsor is expected to provide the dictionary name and version used to map the terms utilizing the define.xml external codelist attributes","Perm"
"SDTMIG v3.2","27","Findings","LB","LBSPEC","Specimen Type","Char","C78734",,"","Record Qualifier","Defines the type of specimen used for a measurement. Examples: SERUM, PLASMA, URINE.","Perm"
"SDTMIG v3.2","28","Findings","LB","LBSPCCND","Specimen Condition","Char","C78733",,"","Record Qualifier","Free or standardized text describing the condition of the specimen e.g. HEMOLYZED, ICTERIC, LIPEMIC etc.","Perm"
"SDTMIG v3.2","29","Findings","LB","LBMETHOD","Method of Test or Examination","Char","C85492",,"","Record Qualifier","Method of the test or examination. Examples: EIA (Enzyme Immunoassay), ELECTROPHORESIS, DIPSTICK","Perm"
"SDTMIG v3.2","30","Findings","LB","LBBLFL","Baseline Flag","Char","C66742",,"","Record Qualifier","Indicator used to identify a baseline value. The value should be ""Y"" or null.","Exp"
"SDTMIG v3.2","31","Findings","LB","LBFAST","Fasting Status","Char","C66742",,"","Record Qualifier","Indicator used to identify fasting status such as Y, N, U, or null if not relevant.","Perm"
"SDTMIG v3.2","32","Findings","LB","LBDRVFL","Derived Flag","Char","C66742",,"","Record Qualifier","Used to indicate a derived record. The value should be Y or null. Records that represent the average of other records, or do not come from the CRF, or are not as originally received or collected are examples of records that might be derived for the submission datasets. If LBDRVFL=Y, then LBORRES may be null, with LBSTRESC, and (if numeric) LBSTRESN having the derived value.","Perm"
"SDTMIG v3.2","33","Findings","LB","LBTOX","Toxicity","Char","",,"","Variable Qualifier","Description of toxicity quantified by LBTOXGR. The sponsor is expected to provide the name of the scale and version used to map the terms, utilizing the define.xml external codelist attributes.","Perm"
"SDTMIG v3.2","34","Findings","LB","LBTOXGR","Standard Toxicity Grade","Char","",,"","Variable Qualifier","Records toxicity grade value using a standard toxicity scale (such as the NCI CTCAE). If value is from a numeric scale, represent only the number (e.g., ""2"" and not ""Grade 2""). The sponsor is expected to provide the name of the scale and version used to map the terms, utilizing the define.xml external codelist attributes.","Perm"
"SDTMIG v3.2","35","Findings","LB","VISITNUM","Visit Number","Num","",,"","Timing","1. Clinical encounter number.  2. Numeric version of VISIT, used for sorting.","Exp"
"SDTMIG v3.2","36","Findings","LB","VISIT","Visit Name","Char","",,"","Timing","1. Protocol-defined description of clinical encounter 2. May be used in addition to VISITNUM and/or VISITDY","Perm"
"SDTMIG v3.2","37","Findings","LB","VISITDY","Planned Study Day of Visit","Num","",,"","Timing","Planned study day of the visit based upon RFSTDTC in Demographics.","Perm"
"SDTMIG v3.2","38","Findings","LB","LBDTC","Date/Time of Specimen Collection","Char","","ISO 8601","","Timing",,"Exp"
"SDTMIG v3.2","39","Findings","LB","LBENDTC","End Date/Time of Specimen Collection","Char","","ISO 8601","","Timing",,"Perm"
"SDTMIG v3.2","40","Findings","LB","LBDY","Study Day of Specimen Collection","Num","",,"","Timing","1. Study day of specimen collection, measured as integer days.  2. Algorithm for calculations must be relative to the sponsor-defined RFSTDTC variable in Demographics. This formula should be consistent across the submission.","Perm"
"SDTMIG v3.2","41","Findings","LB","LBTPT","Planned Time Point Name","Char","",,"","Timing","1. Text Description of time when specimen should be taken.  2. This may be represented as an elapsed time relative to a fixed reference point, such as time of last dose. See LBTPTNUM and LBTPTREF. Examples: Start, 5 min post.","Perm"
"SDTMIG v3.2","42","Findings","LB","LBTPTNUM","Planned Time Point Number","Num","",,"","Timing","Numerical version of LBTPT to aid in sorting.","Perm"
"SDTMIG v3.2","43","Findings","LB","LBELTM","Planned Elapsed Time from Time Point Ref","Char","","ISO 8601","","Timing","Planned Elapsed time (in ISO 8601) relative to a planned fixed reference (LBTPTREF). This variable is useful where there are repetitive measures. Not a clock time or a date time variable. Represented as an ISO 8601 duration. Examples: ""-PT15M"" to represent the period of 15 minutes prior to the reference point indicated by LBTPTREF, or ""PT8H"" to represent the period of 8 hours after the reference point indicated by LBTPTREF.","Perm"
"SDTMIG v3.2","44","Findings","LB","LBTPTREF","Time Point Reference","Char","",,"","Timing","Name of the fixed reference point referred to by LBELTM, LBTPTNUM, and LBTPT. Examples: PREVIOUS DOSE, PREVIOUS MEAL.","Perm"
"SDTMIG v3.2","45","Findings","LB","LBRFTDTC","Date/Time of Reference Time Point","Char","","ISO 8601","","Timing","Date/time of the reference time point, LBTPTREF.","Perm"
"SDTMIG v3.2","1","Findings","MB","STUDYID","Study Identifier","Char","",,"","Identifier","Unique identifier for a study.","Req"
"SDTMIG v3.2","2","Findings","MB","DOMAIN","Domain Abbreviation","Char","",,"MB","Identifier","Two-character abbreviation for the domain.","Req"
"SDTMIG v3.2","3","Findings","MB","USUBJID","Unique Subject Identifier","Char","",,"","Identifier","Identifier used to uniquely identify a subject across all studies for all applications or submissions involving the product.","Req"
"SDTMIG v3.2","4","Findings","MB","MBSEQ","Sequence Number","Num","",,"","Identifier","Sequence Number given to ensure uniqueness of subject records within a domain. May be any valid number.","Req"
"SDTMIG v3.2","5","Findings","MB","MBGRPID","Group ID","Char","",,"","Identifier","Used to tie together a block of related records in a single domain to support relationships within the domain and between domains. In MB, used to link to findings about organisms which are stored in MS.","Exp"
"SDTMIG v3.2","6","Findings","MB","MBREFID","Reference ID","Char","",,"","Identifier","Internal or external specimen identifier. Example: Specimen ID","Perm"
"SDTMIG v3.2","7","Findings","MB","MBSPID","Sponsor-Defined Identifier","Char","",,"","Identifier","Sponsor-defined reference number. Perhaps pre-printed on the CRF as an explicit line identifier or defined in the sponsor's operational database. Example: ORGANISM IDENTIFIER. For organism identification, MBSPID would remain the same each time the same organism is identified in a new specimen.","Perm"
"SDTMIG v3.2","8","Findings","MB","MBTESTCD","Microbiology Test or Finding Short Name","Char","",,"","Topic","Short name of the measurement, test, or finding described in MBTEST. It can be used as a column name when converting a dataset from a vertical to a horizontal format. The value in MBTESTCD cannot be longer than 8 characters, nor can it start with a number (e.g., ""1TEST""). MBTESTCD cannot contain characters other than letters, numbers, or underscores. Examples for GRAM STAIN findings: GMNROD, GMNCOC, GMSQEPCE, GMPMNLOW. Examples for CULTURE PLATE findings: ORGANISM.","Req"
"SDTMIG v3.2","9","Findings","MB","MBTEST","Microbiology Test or Finding Name","Char","",,"","Synonym Qualifier","Verbatim name of the test or examination used to obtain the measurement or finding. The value in MBTEST cannot be longer than 40 characters. Examples: GRAM NEGATIVE RODS, GRAM NEGATIVE COCCI, SQUAMOUS EPITHELIAL CELLS, PMN PER FIELD LOW, ORGANISM PRESENT","Req"
"SDTMIG v3.2","10","Findings","MB","MBCAT","Category for Microbiology Finding","Char","",,"","Grouping Qualifier","Used to define a category of related records.","Perm"
"SDTMIG v3.2","11","Findings","MB","MBSCAT","Subcategory for Microbiology Finding","Char","",,"","Grouping Qualifier","Used to define a further categorization of MBCAT.","Perm"
"SDTMIG v3.2","12","Findings","MB","MBORRES","Result or Finding in Original Units","Char","",,"","Result Qualifier","Result of the Microbiology measurement or finding as originally received or collected. Examples for GRAM STAIN findings: +3 MODERATE, +2 FEW, <10. Examples for CULTURE PLATE (ORGANISM) findings: KLEBSIELLA PNEUMONIAE, STREPTOCOCCUS PNEUMONIAE.","Exp"
"SDTMIG v3.2","13","Findings","MB","MBORRESU","Original Units","Char","C71620",,"","Variable Qualifier","Original unit for MBORRES. Example: mcg/mL","Perm"
"SDTMIG v3.2","14","Findings","MB","MBSTRESC","Character Result/Finding in Std Format","Char","",,"","Result Qualifier","Contains the result value for all findings, copied or derived from MBORRES in a standard format or standard units. MBSTRESC should store all results or findings in character format; if results are numeric, they should also be stored in numeric format in MBSTRESN. For example, if a test has results ""+3 MODERATE"", ""MOD"", and ""MODERATE"" in MBORRES and these results effectively have the same meaning, they could be represented in standard format in MBSTRESC as ""MODERATE"".","Exp"
"SDTMIG v3.2","15","Findings","MB","MBSTRESN","Numeric Result/Finding in Standard Units","Num","",,"","Result Qualifier","Used for continuous or numeric results or findings in standard format; copied in numeric format from MBSTRESC. MBSTRESN should store all numeric test results or findings.","Perm"
"SDTMIG v3.2","16","Findings","MB","MBSTRESU","Standard Units","Char","C71620",,"","Variable Qualifier","Standardized unit used for MBSTRESC and MBSTRESN.","Perm"
"SDTMIG v3.2","17","Findings","MB","MBRESCAT","Result Category","Char","",,"","Variable Qualifier","Used to categorize the result of a finding in a standard format. Example for ORGANISM finding: INFECTING, COLONIZER, CONTAMINANT, or NORMAL FLORA.","Exp"
"SDTMIG v3.2","18","Findings","MB","MBSTAT","Completion Status","Char","C66789",,"","Record Qualifier","Used to indicate Microbiology was not done, or a test was not done. Should be null or have a value of NOT DONE.","Perm"
"SDTMIG v3.2","19","Findings","MB","MBREASND","Reason Microbiology Not Performed","Char","",,"","Record Qualifier","Reason not done. Used in conjunction with MBSTAT when value is NOT DONE. Examples: BROKEN EQUIPMENT or SUBJECT REFUSED.","Perm"
"SDTMIG v3.2","20","Findings","MB","MBNAM","Vendor Name","Char","",,"","Record Qualifier","Name or identifier of the laboratory or vendor who provides the test results.","Perm"
"SDTMIG v3.2","21","Findings","MB","MBLOINC","LOINC Code","Char","",,"","Synonym Qualifier","1. Dictionary-derived LOINC Code for MBTEST. 2. The sponsor is expected to provide the dictionary name and version used to map the terms utilizing the define.xml external codelist attributes","Perm"
"SDTMIG v3.2","22","Findings","MB","MBSPEC","Specimen Type","Char","C78734",,"","Record Qualifier","Defines the type of specimen used for a measurement. Examples: SPUTUM, BLOOD, PUS.","Perm"
"SDTMIG v3.2","23","Findings","MB","MBSPCCND","Specimen Condition","Char","C78733",,"","Record Qualifier","Free or standardized text describing the condition of the specimen. Example: CONTAMINATED.","Perm"
"SDTMIG v3.2","24","Findings","MB","MBLOC","Specimen Collection Location","Char","C74456",,"","Record Qualifier","Location relevant to the collection of the measurement. Examples: LUNG, VEIN, ARM, FOOT","Perm"
"SDTMIG v3.2","25","Findings","MB","MBMETHOD","Method of Test or Examination","Char","C85492",,"","Record Qualifier","Method of the test or examination. Example: GRAM STAIN, MACRO BROTH DILUTION, AGAR DILUTION","Exp"
"SDTMIG v3.2","26","Findings","MB","MBBLFL","Baseline Flag","Char","C66742",,"","Record Qualifier","Indicator used to identify a baseline value. The value should be ""Y"" or null.","Perm"
"SDTMIG v3.2","27","Findings","MB","MBDRVFL","Derived Flag","Char","C66742",,"","Record Qualifier","Used to indicate a derived record. The value should be Y or null. Records that represent the average of other records or some other derivation, and those that do not come from the CRF, are examples of records that would be derived for the submission datasets. If MBDRVFL=Y, then MBORRES may be null with MBSTRESC and (if numeric) MBSTRESN having the derived value.","Perm"
"SDTMIG v3.2","28","Findings","MB","VISITNUM","Visit Number","Num","",,"","Timing","1. Clinical encounter number. 2. Numeric version of VISIT, used for sorting.","Exp"
"SDTMIG v3.2","29","Findings","MB","VISIT","Visit Name","Char","",,"","Timing","1. Protocol-defined description of clinical encounter. 2. May be used in addition to VISITNUM and/or VISITDY.","Perm"
"SDTMIG v3.2","30","Findings","MB","VISITDY","Planned Study Day of Visit","Num","",,"","Timing","Planned study day of the visit based upon RFSTDTC in Demographics.","Perm"
"SDTMIG v3.2","31","Findings","MB","MBDTC","Date/Time of Specimen Collection","Char","","ISO 8601","","Timing",,"Exp"
"SDTMIG v3.2","32","Findings","MB","MBDY","Study Day of MB Specimen Collection","Num","",,"","Timing","1. Study day of the specimen collection, measured as integer days. 2. Algorithm for calculations must be relative to the sponsor-defined RFSTDTC variable in Demographics. This formula should be consistent across the submission.","Perm"
"SDTMIG v3.2","33","Findings","MB","MBTPT","Planned Time Point Name","Char","",,"","Timing","1. Text Description of time when specimen should be taken. 2. This may be represented as an elapsed time relative to a fixed reference point, such as time of last dose. See MBTPTNUM and MBTPTREF. Examples: Start, 5 min post.","Perm"
"SDTMIG v3.2","34","Findings","MB","MBTPTNUM","Planned Time Point Number","Num","",,"","Timing","Numerical version of MBTPT to aid in sorting.","Perm"
"SDTMIG v3.2","35","Findings","MB","MBELTM","Planned Elapsed Time from Time Point Ref","Char","","ISO 8601","","Timing","Planned elapsed time (in ISO 8601) relative to a planned fixed reference (MBTPTREF). This variable is useful where there are repetitive measures. Not a clock time or a date time variable. Represented as an ISO 8601 duration. Examples: ""-PT15M"" to represent the period of 15 minutes prior to the reference point indicated by MBTPTREF, or ""PT8H"" to represent the period of 8 hours after the reference point indicated by MBTPTREF.","Perm"
"SDTMIG v3.2","36","Findings","MB","MBTPTREF","Time Point Reference","Char","",,"","Timing","Name of the fixed reference point referred to by MBELTM, MBTPTNUM, and MBTPT. Example: PREVIOUS DOSE.","Perm"
"SDTMIG v3.2","37","Findings","MB","MBRFTDTC","Date/Time of Reference Time Point","Char","","ISO 8601","","Timing","Date/time of the reference time point, MBTPTREF.","Perm"
"SDTMIG v3.2","1","Findings","MS","STUDYID","Study Identifier","Char","",,"","Identifier","Unique identifier for a study.","Req"
"SDTMIG v3.2","2","Findings","MS","DOMAIN","Domain Abbreviation","Char","",,"MS","Identifier","Two-character abbreviation for the domain.","Req"
"SDTMIG v3.2","3","Findings","MS","USUBJID","Unique Subject Identifier","Char","",,"","Identifier","Identifier used to uniquely identify a subject across all studies for all applications or submissions involving the product.","Req"
"SDTMIG v3.2","4","Findings","MS","MSSEQ","Sequence Number","Num","",,"","Identifier","Sequence Number given to ensure uniqueness of subject records within a domain. May be any valid number.","Req"
"SDTMIG v3.2","5","Findings","MS","MSGRPID","Group ID","Char","",,"","Identifier","Used to tie together a block of related records in a single domain to support relationships within the domain and between domains. In MS, used to link to organism in MB.","Req"
"SDTMIG v3.2","6","Findings","MS","MSREFID","Reference ID","Char","",,"","Identifier","Internal or external specimen identifier. Example: Specimen ID.","Perm"
"SDTMIG v3.2","7","Findings","MS","MSSPID","Sponsor-Defined Identifier","Char","",,"","Identifier","Sponsor-defined reference number. Perhaps pre-printed on the CRF as an explicit line identifier or defined in the sponsor's operational database.","Perm"
"SDTMIG v3.2","8","Findings","MS","MSTESTCD","Microbiology Organism Finding Short Name","Char","",,"","Topic","Short name of the measurement, test, or finding described in MSTEST. It can be used as a column name when converting a dataset from a vertical to a horizontal format. The value in MSTESTCD cannot be longer than 8 characters, nor can it start with a number (e.g.""1TEST). MSTESTCD cannot contain characters other than letters, numbers, or underscores. Examples for GROWTH findings: EXTGROW, COLCOUNT. For SUSCEPTIBILITY findings, the test is the drug the organism was tested with, i.e. PENICLLN, AMOXCLLN.","Req"
"SDTMIG v3.2","9","Findings","MS","MSTEST","Organism Test or Finding Name","Char","",,"","Synonym Qualifier","Verbatim name of the test or examination used to obtain the measurement or finding. Examples for GROWTH findings: Extent of Growth, Colony Count. Examples for SUSCEPTIBILITY findings: Amoxicillin Susceptibility, Penicillin Susceptibility","Req"
"SDTMIG v3.2","10","Findings","MS","MSCAT","Category for Organism Findings","Char","",,"","Grouping Qualifier","Used to define a category of related records. Examples: GROWTH, SUSCEPTIBILITY.","Req"
"SDTMIG v3.2","11","Findings","MS","MSSCAT","Subcategory for Organism Findings","Char","",,"","Grouping Qualifier","A further categorization of a test category. Examples: CULTURE, ISOLATE","Perm"
"SDTMIG v3.2","12","Findings","MS","MSORRES","Result or Finding in Original Units","Char","",,"","Result Qualifier","Result of the Microbiology Organism measurement or finding as originally received or collected. Examples for GROWTH findings: GROWTH INTO 3RD QUADRANT. Examples for SUSCEPTIBLITY findings:.0080,.0023","Exp"
"SDTMIG v3.2","13","Findings","MS","MSORRESU","Original Units","Char","C71620",,"","Variable Qualifier","Original units in which the data were collected. The unit for MSORRES. Example: mcg/mL","Exp"
"SDTMIG v3.2","14","Findings","MS","MSSTRESC","Character Result/Finding in Std Format","Char","",,"","Result Qualifier","Contains the result value for all findings, copied or derived from MSORRES in a standard format or standard units. MSSTRESC should store all results or findings in character format; if results are numeric, they should also be stored in numeric format in MSSTRESN. For example, if a test has results ""+3 MODERATE"", ""MOD"", and ""MODERATE"", and in MSORRES and these results effectively have the same meaning, they could be represented in standard format in MSSTRESC as ""MODERATE"".","Exp"
"SDTMIG v3.2","15","Findings","MS","MSSTRESN","Numeric Result/Finding in Standard Units","Num","",,"","Result Qualifier","Used for continuous or numeric results or findings in standard format; copied in numeric format from MSSTRESC. MSSTRESN should store all numeric test results or findings.","Exp"
"SDTMIG v3.2","16","Findings","MS","MSSTRESU","Standard Units","Char","C71620",,"","Variable Qualifier","Standardized unit used for MSSTRESC and MSSTRESN.","Exp"
"SDTMIG v3.2","17","Findings","MS","MSRESCAT","Result Category","Char","C85495",,"","Variable Qualifier","Used to categorize the result of a finding in a standard format. Example for SUSCEPTIBILITY finding: SUSCEPTIBLE, INTERMEDIATE, RESISTANT, or UNKNOWN.","Exp"
"SDTMIG v3.2","18","Findings","MS","MSSTAT","Completion Status","Char","C66789",,"","Record Qualifier","Used to indicate a test on an organism was not done, or a test was not performed. Should be null if a result exists in MSORRES or have a value of NOT DONE.","Perm"
"SDTMIG v3.2","19","Findings","MS","MSREASND","Reason Test Not Done","Char","",,"","Record Qualifier","Reason not done. Describes why a measurement or test was not performed. Used in conjunction with MSSTAT when value is NOT DONE. Example: SAMPLE LOST","Perm"
"SDTMIG v3.2","20","Findings","MS","MSNAM","Vendor Name","Char","",,"","Record Qualifier","Name or identifier of the laboratory or vendor that provided the test results.","Perm"
"SDTMIG v3.2","21","Findings","MS","MSLOINC","LOINC Code","Char","",,"","Synonym Qualifier","1. Dictionary-derived LOINC Code for MSTEST. 2. The sponsor is expected to provide the dictionary name and version used to map the terms utilizing the define.xml external codelist attributes","Perm"
"SDTMIG v3.2","22","Findings","MS","MSMETHOD","Method of Test or Examination","Char","C85492",,"","Record Qualifier","Method of the test or examination. Example: GRAM STAIN, MACRO BROTH DILUTION, AGAR DILUTION","Exp"
"SDTMIG v3.2","23","Findings","MS","MSBLFL","Baseline Flag","Char","C66742",,"","Record Qualifier","Indicator used to identify a baseline value. The value should be ""Y"" or null.","Perm"
"SDTMIG v3.2","24","Findings","MS","MSDRVFL","Derived Flag","Char","C66742",,"","Record Qualifier","Used to indicate a derived record. The value should be Y or null. Records that represent the average of other records or some other derivation, and those that do not come from the CRF, are examples of records that would be derived for the submission datasets. If MSDRVFL=Y, then MSORRES may be null, with MSSTRESC and (if numeric) MSSTRESN having the derived value.","Perm"
"SDTMIG v3.2","25","Findings","MS","VISITNUM","Visit Number","Num","",,"","Timing","1. Clinical encounter number. 2. Numeric version of VISIT, used for sorting.","Exp"
"SDTMIG v3.2","26","Findings","MS","VISIT","Visit Name","Char","",,"","Timing","1. Protocol-defined description of clinical encounter. 2. May be used in addition to VISITNUM and/or VISITDY.","Perm"
"SDTMIG v3.2","27","Findings","MS","VISITDY","Planned Study Day of Visit","Num","",,"","Timing","Planned study day of the visit based upon RFSTDTC in Demographics.","Perm"
"SDTMIG v3.2","28","Findings","MS","MSDTC","Date/Time of Test","Char","","ISO 8601","","Timing",,"Perm"
"SDTMIG v3.2","29","Findings","MS","MSDY","Study Day of Test","Num","",,"","Timing","1. Study day of the test, measured as integer days. 2. Algorithm for calculations must be relative to the sponsor-defined RFSTDTC variable in Demographics. This formula should be consistent across the submission.","Perm"
"SDTMIG v3.2","30","Findings","MS","MSTPT","Planned Time Point Name","Char","",,"","Timing","1. Text Description of time when test should be done.  2. This may be represented as an elapsed time relative to a fixed reference point, such as time of last dose. See MSTPTNUM and MSTPTREF. Examples: Start, 5 min post.","Perm"
"SDTMIG v3.2","31","Findings","MS","MSTPTNUM","Planned Time Point Number","Num","",,"","Timing","Numerical version of MSTPT to aid in sorting.","Perm"
"SDTMIG v3.2","32","Findings","MS","MSELTM","Planned Elapsed Time from Time Point Ref","Char","","ISO 8601","","Timing","Elapsed time (in ISO 8601) relative to a planned fixed reference (MSTPTREF). This variable is useful where there are repetitive measures. Not a clock time or a date time variable. Examples: ""-PT15M"" to represent the period of 15 minutes prior to the reference point indicated by MSTPTREF, or ""P8H"" to represent the period of 8 hours after the reference point indicated by MSTPTREF.","Perm"
"SDTMIG v3.2","33","Findings","MS","MSTPTREF","Time Point Reference","Char","",,"","Timing","Name of the fixed reference point referred to by MSELTM, MSTPTNUM, and MSTPT. Example: PREVIOUS DOSE.","Perm"
"SDTMIG v3.2","1","Findings","MI","STUDYID","Study Identifier","Char","",,"","Identifier","Unique identifier for a study.","Req"
"SDTMIG v3.2","2","Findings","MI","DOMAIN","Domain Abbreviation","Char","",,"MI","Identifier","Two-character abbreviation for the domain.","Req"
"SDTMIG v3.2","3","Findings","MI","USUBJID","Unique Subject Identifier","Char","",,"","Identifier","Identifier used to uniquely identify a subject across all studies for all applications or submissions involving the product.","Req"
"SDTMIG v3.2","4","Findings","MI","MISEQ","Sequence Number","Num","",,"","Identifier","Sequence number given to ensure uniqueness of subject records within a domain. May be any valid number.","Req"
"SDTMIG v3.2","5","Findings","MI","MIGRPID","Group ID","Char","",,"","Identifier","Used to tie together a block of related records in a single domain for a subject. This is not the treatment group number.","Perm"
"SDTMIG v3.2","6","Findings","MI","MIREFID","Reference ID","Char","",,"","Identifier","Internal or external specimen identifier. Example: Specimen barcode number.","Perm"
"SDTMIG v3.2","7","Findings","MI","MISPID","Sponsor-Defined Identifier","Char","",,"","Identifier","Sponsor-defined reference number. Perhaps pre-printed on the CRF as an explicit line identifier or defined in the sponsor's operational database. Example: Line number from the MI Findings page.","Perm"
"SDTMIG v3.2","8","Findings","MI","MITESTCD","Microscopic Examination Short Name","Char","C89974",,"","Topic","Short name of the measurement, test, or examination described in MITEST. It can be used as a column name when converting a dataset from a vertical to a horizontal format. The value in MITESTCD cannot be longer than 8 characters, nor can it start with a number (e.g., ""1TEST"" is not valid). MITESTCD cannot contain characters other than letters, numbers, or underscores. Examples: HER2, BRCA1, TTF1.","Req"
"SDTMIG v3.2","9","Findings","MI","MITEST","Microscopic Examination Name","Char","C89973",,"","Synonym Qualifier","Verbatim name of the test or examination used to obtain the measurement or finding. The value in MITEST cannot be longer than 40 characters. Examples: Human Epidermal Growth Factor Receptor 2, Breast Cancer Susceptibility Gene 1, Thyroid Transcription Factor 1.","Req"
"SDTMIG v3.2","10","Findings","MI","MITSTDTL","Microscopic Examination Detail","Char","",,"","Record Qualifier","Further description of the test performed in producing the MI result. This would be used to represent specific attributes, such as intensity score or percentage of cells displaying presence of the biomarker or compound","Perm"
"SDTMIG v3.2","11","Findings","MI","MICAT","Category for Microscopic Finding","Char","",,"","Grouping Qualifier","Used to define a category of related records.","Perm"
"SDTMIG v3.2","12","Findings","MI","MISCAT","Subcategory for Microscopic Finding","Char","",,"","Grouping Qualifier","Used to define a further categorization of MICAT.","Perm"
"SDTMIG v3.2","13","Findings","MI","MIORRES","Result or Finding in Original Units","Char","",,"","Result Qualifier","Result of the histopathology measurement or finding as originally received or collected.","Exp"
"SDTMIG v3.2","14","Findings","MI","MIORRESU","Original Units","Char","C71620",,"","Variable Qualifier","Original unit for MIORRES.","Perm"
"SDTMIG v3.2","15","Findings","MI","MISTRESC","Character Result/Finding in Standard Format","Char","",,"","Result Qualifier","Contains the result value for all findings, copied or derived from MIORRES in a standard format or standard units. MISTRESC should store all results or findings in character format; if results are numeric, they should also be stored in numeric format in MISTRESN.","Exp"
"SDTMIG v3.2","16","Findings","MI","MISTRESN","Numeric Result/Finding in Standard Units","Num","",,"","Result Qualifier","Used for continuous or numeric results or findings in standard format; copied in numeric format from MISTRESC. MISTRESN should store all numeric test results or findings.","Perm"
"SDTMIG v3.2","17","Findings","MI","MISTRESU","Standard Units","Char","C71620",,"","Variable Qualifier","Standardized unit used for MISTRESC and MISTRESN.","Perm"
"SDTMIG v3.2","18","Findings","MI","MIRESCAT","Result Category","Char","",,"","Result Qualifier","Used to categorize the result of a finding.  Examples: MALIGNANT or BENIGN for tumor findings.","Perm"
"SDTMIG v3.2","19","Findings","MI","MISTAT","Completion Status","Char","C66789",,"","Record Qualifier","Used to indicate examination not done or result is missing. Should be null if a result exists in MIORRES or have a value of NOT DONE when MIORRES=NULL.","Perm"
"SDTMIG v3.2","20","Findings","MI","MIREASND","Reason Not Done","Char","",,"","Record Qualifier","Reason not done. Used in conjunction with MISTAT when value is NOT DONE. Examples: SAMPLE AUTOLYZED, SPECIMEN LOST.","Perm"
"SDTMIG v3.2","21","Findings","MI","MINAM","Laboratory/Vendor Name","Char","",,"","Record Qualifier","Name or identifier of the vendor (e.g., laboratory) that provided the test results.","Perm"
"SDTMIG v3.2","22","Findings","MI","MISPEC","Specimen Material Type","Char","C78734",,"","Record Qualifier","Subject of the observation. Defines the type of specimen used for a measurement. Examples: TISSUE, BLOOD, BONE MARROW.","Req"
"SDTMIG v3.2","23","Findings","MI","MISPCCND","Specimen Condition","Char","C78733",,"","Variable Qualifier","Free or standardized text describing the condition of the specimen. Example: AUTOLYZED.","Exp"
"SDTMIG v3.2","24","Findings","MI","MILOC","Specimen Collection Location","Char","C74456",,"","Record Qualifier","Location relevant to the collection of the specimen. Examples: LUNG, KNEE JOINT, ARM, THIGH.","Perm"
"SDTMIG v3.2","25","Findings","MI","MILAT","Specimen Laterality within Subject","Char","C99073",,"","Variable Qualifier","Qualifier for laterality of the location of the specimen in MILOC. Examples: LEFT, RIGHT, BILATERAL.","Perm"
"SDTMIG v3.2","26","Findings","MI","MIDIR","Specimen Directionality within Subject","Char","C99074",,"","Variable Qualifier","Qualifier for directionality of the location of the specimen in MILOC. Examples: DORSAL, PROXIMAL.","Perm"
"SDTMIG v3.2","27","Findings","MI","MIMETHOD","Method of Test or Examination","Char","C85492",,"","Record Qualifier","Method of the test or examination. This could include the technique or type of staining used for the slides. Examples: IHC, Crystal Violet, Safranin, Trypan Blue, or Propidium Iodide.","Perm"
"SDTMIG v3.2","28","Findings","MI","MIBLFL","Baseline Flag","Char","C66742",,"","Record Qualifier","Indicator used to identify a baseline value. The value should be ""Y"" or null.","Exp"
"SDTMIG v3.2","29","Findings","MI","MIEVAL","Evaluator","Char","C78735",,"","Record Qualifier","Role of the person who provided the evaluation. Example: PATHOLOGIST, PEER REVIEW, SPONSOR PATHOLOGIST.","Perm"
"SDTMIG v3.2","30","Findings","MI","VISITNUM","Visit Number","Num","",,"","Timing","1. Clinical encounter number. 2. Numeric version of VISIT, used for sorting.","Exp"
"SDTMIG v3.2","31","Findings","MI","VISIT","Visit Name","Char","",,"","Timing","1. Protocol-defined description of clinical encounter. 2. May be used in addition to VISITNUM and/or VISITDY.","Perm"
"SDTMIG v3.2","32","Findings","MI","VISITDY","Planned Study Day of Visit","Num","",,"","Timing","Planned study day of the visit based upon RFSTDTC in Demographics.","Perm"
"SDTMIG v3.2","33","Findings","MI","MIDTC","Date/Time of Specimen Collection","Char","","ISO 8601","","Timing","Date/time of specimen collection, in ISO 8601 format.","Exp"
"SDTMIG v3.2","34","Findings","MI","MIDY","Study Day of Specimen Collection","Num","",,"","Timing","Study day of specimen collection, in integer days. The algorithm for calculations must be relative to the sponsor-defined RFSTDTC variable in the Demographics (DM) domain.","Perm"
"SDTMIG v3.2","1","Findings","MO","STUDYID","Study Identifier","Char","",,"","Identifier","Unique identifier for a study.","Req"
"SDTMIG v3.2","2","Findings","MO","DOMAIN","Domain Abbreviation","Char","",,"MO","Identifier","Two-character abbreviation for the domain.","Req"
"SDTMIG v3.2","3","Findings","MO","USUBJID","Unique Subject Identifier","Char","",,"","Identifier","Identifier used to uniquely identify a subject across all studies for all applications or submissions involving the product.","Req"
"SDTMIG v3.2","4","Findings","MO","MOSEQ","Sequence Number","Num","",,"","Identifier","Sequence Number given to ensure uniqueness of subject records within a domain. May be any valid number.","Req"
"SDTMIG v3.2","5","Findings","MO","MOGRPID","Group ID","Char","",,"","Identifier","Used to tie together a block of related records in a single domain for a subject.","Perm"
"SDTMIG v3.2","6","Findings","MO","MOREFID","Reference ID","Char","",,"","Identifier","Internal or external procedure identifier.","Perm"
"SDTMIG v3.2","7","Findings","MO","MOSPID","Sponsor-Defined Identifier","Char","",,"","Identifier","Sponsor-defined reference number. Perhaps pre-printed on the CRF as an explicit line identifier or defined in the sponsor's operational database. Example: Line number from the procedure or test page.","Perm"
"SDTMIG v3.2","8","Findings","MO","MOLNKID","Link ID","Char","",,"","Identifier","Identifier used to link results of a procedure to the procedure performed.","Perm"
"SDTMIG v3.2","9","Findings","MO","MOTESTCD","Test or Examination Short Name","Char","C114117",,"","Topic","Short name of the measurement, test, or examination described in MOTEST. It can be used as a column name when converting a dataset from a vertical to a horizontal format. The value in MOTESTCD cannot be longer than 8 characters, nor can it start with a number (e.g., ""1TEST""). MOTESTCD cannot contain characters other than letters, numbers, or underscores. Examples: VOLUME, INTP","Req"
"SDTMIG v3.2","10","Findings","MO","MOTEST","Test or Examination Name","Char","C114116",,"","Synonym Qualifier","Verbatim name of the test or examination used to obtain the measurement or finding. The value in MOTEST cannot be longer than 40 characters. Examples: Volume, Interpretation","Req"
"SDTMIG v3.2","11","Findings","MO","MOCAT","Category for Test","Char","",,"","Grouping Qualifier","Used to categorize observations across subjects.","Perm"
"SDTMIG v3.2","12","Findings","MO","MOSCAT","Subcategory for Test","Char","",,"","Grouping Qualifier","A further categorization.","Perm"
"SDTMIG v3.2","13","Findings","MO","MOPOS","Position of Subject","Char","C71148",,"","Record Qualifier","Position of the subject during a measurement or examination. Examples: SUPINE, STANDING, SITTING.","Perm"
"SDTMIG v3.2","14","Findings","MO","MOORRES","Result or Finding in Original Units","Char","",,"","Result Qualifier","Result of the procedure measurement or finding as originally received or collected.","Exp"
"SDTMIG v3.2","15","Findings","MO","MOORRESU","Original Units","Char","C71620",,"","Variable Qualifier","Original units in which the data were collected. The unit for MOORRES.","Perm"
"SDTMIG v3.2","16","Findings","MO","MOSTRESC","Character Result/Finding in Std Format","Char","",,"","Result Qualifier","Contains the result value for all findings, copied or derived from MOORRES in a standard format or standard units. MOSTRESC should store all results or findings in character format; if results are numeric, they should also be stored in numeric format in MOSTRESN.","Exp"
"SDTMIG v3.2","17","Findings","MO","MOSTRESN","Numeric Result/Finding in Standard Units","Num","",,"","Result Qualifier","Used for continuous or numeric results or findings in standard format; copied in numeric format from MOSTRESC. MOSTRESN should store all numeric test results or findings.","Perm"
"SDTMIG v3.2","18","Findings","MO","MOSTRESU","Standard Units","Char","C71620",,"","Variable Qualifier","Standardized unit used for MOSTRESC or MOSTRESN.","Perm"
"SDTMIG v3.2","19","Findings","MO","MOSTAT","Completion Status","Char","C66789",,"","Record Qualifier","Used to indicate a test was not done, or a measurement was not taken. Should be null if a result exists in MOORRES.","Perm"
"SDTMIG v3.2","20","Findings","MO","MOREASND","Reason Test Not Performed","Char","",,"","Record Qualifier","Describes why a measurement or test was not performed. Examples: BROKEN EQUIPMENT or SUBJECT REFUSED. Used in conjunction with MOSTAT when value is NOT DONE.","Perm"
"SDTMIG v3.2","21","Findings","MO","MOXFN","External File Path","Char","",,"","Record Qualifier","File path to the external file.","Perm"
"SDTMIG v3.2","22","Findings","MO","MONAM","Vendor Name","Char","",,"","Record Qualifier","Name or identifier of the laboratory or vendor who provided the test results.","Perm"
"SDTMIG v3.2","23","Findings","MO","MOLOC","Location Used for Measurement","Char","C74456",,"","Record Qualifier","Location relevant to the collection of the measurement. Examples: BRAIN, KIDNEY, LIVER. etc.","Perm"
"SDTMIG v3.2","24","Findings","MO","MOLAT","Specimen Laterality within Subject","Char","C99073",,"","Variable Qualifier","Qualifier for laterality of the specimen within the subject for paired specimens.  Examples: LEFT, RIGHT, BILATERAL.","Perm"
"SDTMIG v3.2","25","Findings","MO","MODIR","Specimen Directionality within Subject","Char","C99074",,"","Variable Qualifier","Qualifier for directionality of the specimen within the subject.  Examples: DORSAL, PROXIMAL.","Perm"
"SDTMIG v3.2","26","Findings","MO","MOPORTOT","Portion or Totality","Char","C99075",,"","Variable Qualifier","Qualifier for anatomical location or specimen further detailing the portion of totality which means arrangement of, or apportioning of. Examples: ENTIRE, PARTIAL","Perm"
"SDTMIG v3.2","27","Findings","MO","MOMETHOD","Method of Procedure Test","Char","C85492",,"","Record Qualifier","Method of the test or examination result.","Perm"
"SDTMIG v3.2","28","Findings","MO","MOANMETH","Analysis Method","Char","",,"","Record Qualifier","Analysis method applied to obtain a summarized result. Examples: STEREOLOGY","Perm"
"SDTMIG v3.2","29","Findings","MO","MOBLFL","Baseline Flag","Char","C66742",,"","Record Qualifier","Indicator used to identify a baseline value. The value should be ""Y"" or null.","Exp"
"SDTMIG v3.2","30","Findings","MO","MODRVFL","Derived Flag","Char","C66742",,"","Record Qualifier","Used to indicate a derived record. The value should be Y or null. Records that represent the average of other records, or that do not come from the CRF, or are not as originally collected or received are examples of records that would be derived for the submission datasets. If MODRVFL=Y, then MOORRES could be null, and (if numeric) MOSTRESN having the derived value.","Perm"
"SDTMIG v3.2","31","Findings","MO","MOEVAL","Evaluator","Char","C78735",,"","Record Qualifier","Role of the person who provided the evaluation. Used only for results that are subjective (e.g., assigned by a person or a group). Should be null for records that contain collected or derived data. Examples: INVESTIGATOR, ADJUDICATION COMMITTEE, VENDOR.","Perm"
"SDTMIG v3.2","32","Findings","MO","VISITNUM","Visit Number","Num","",,"","Timing","1. Clinical encounter number. 2. Numeric version of VISIT, used for sorting.","Exp"
"SDTMIG v3.2","33","Findings","MO","VISIT","Visit Name","Char","",,"","Timing","1. Protocol-defined description of clinical encounter. 2. May be used in addition to VISITNUM and/or VISITDY.","Perm"
"SDTMIG v3.2","34","Findings","MO","VISITDY","Planned Study Day of Visit","Num","",,"","Timing","Planned study day of the visit based upon RFSTDTC in Demographics.","Perm"
"SDTMIG v3.2","35","Findings","MO","MODTC","Date/Time of Test","Char","","ISO 8601","","Timing","Date of test.","Exp"
"SDTMIG v3.2","36","Findings","MO","MODY","Study Day of Test","Num","",,"","Timing","1. Study day of the procedure or test, measured as integer days. 2. Algorithm for calculations must be relative to the sponsor-defined RFSTDTC variable in Demographics.","Perm"
"SDTMIG v3.2","37","Findings","MO","MOTPT","Planned Time Point Name","Char","",,"","Timing","1. Text Description of time when measurement should be taken. 2. This may be represented as an elapsed time relative to a fixed reference point, such as time of last dose. See MOTPTNUM and MOTPTREF. Examples: Start, 5 min post.","Perm"
"SDTMIG v3.2","38","Findings","MO","MOTPTNUM","Planned Time Point Number","Num","",,"","Timing","Numerical version of MOTPT to aid in sorting.","Perm"
"SDTMIG v3.2","39","Findings","MO","MOELTM","Planned Elapsed Time from Time Point Ref","Char","","ISO 8601","","Timing","Planned elapsed time (in ISO 8601) relative to a fixed time point reference (MOTPTREF). Not a clock time or a date time variable. Represented as an ISO 8601 duration. Examples: ""-PT15M"" to represent the period of 15 minutes prior to the reference point indicated by MOTPTREF, or ""PT8H"" to represent the period of 8 hours after the reference point indicated by MOTPTREF.","Perm"
"SDTMIG v3.2","40","Findings","MO","MOTPTREF","Time Point Reference","Char","",,"","Timing","Name of the fixed reference point referred to by MOELTM, MOTPTNUM, and MOTPT. Examples: PREVIOUS DOSE, PREVIOUS MEAL.","Perm"
"SDTMIG v3.2","41","Findings","MO","MORFTDTC","Date/Time of Reference Time Point","Char","","ISO 8601","","Timing","Date/time of the reference time point, MOTPTREF.","Perm"
"SDTMIG v3.2","1","Findings","PC","STUDYID","Study Identifier","Char","",,"","Identifier","Unique identifier for a study.","Req"
"SDTMIG v3.2","2","Findings","PC","DOMAIN","Domain Abbreviation","Char","",,"PC","Identifier","Two-character abbreviation for the domain.","Req"
"SDTMIG v3.2","3","Findings","PC","USUBJID","Unique Subject Identifier","Char","",,"","Identifier","Unique subject identifier within the submission.","Req"
"SDTMIG v3.2","4","Findings","PC","PCSEQ","Sequence Number","Num","",,"","Identifier","Sequence Number given to ensure uniqueness of subject records within a domain. May be any valid number.","Req"
"SDTMIG v3.2","5","Findings","PC","PCGRPID","Group ID","Char","",,"","Identifier","Used to tie together a block of related records in a single domain to support relationships within the domain and between domains.","Perm"
"SDTMIG v3.2","6","Findings","PC","PCREFID","Reference ID","Char","",,"","Identifier","Internal or external specimen identifier. Example: Specimen ID.","Perm"
"SDTMIG v3.2","7","Findings","PC","PCSPID","Sponsor-Defined Identifier","Char","",,"","Identifier","Sponsor-defined reference number.","Perm"
"SDTMIG v3.2","8","Findings","PC","PCTESTCD","Pharmacokinetic Test Short Name","Char","",,"","Topic","Short name of the analyte or specimen characteristic. It can be used as a column name when converting a dataset from a vertical to a horizontal format. The value in PCTESTCD cannot be longer than 8 characters, nor can it start with a number (e.g., ""1TEST""). PCTESTCD cannot contain characters other than letters, numbers, or underscores. Examples: ASA, VOL, SPG.","Req"
"SDTMIG v3.2","9","Findings","PC","PCTEST","Pharmacokinetic Test Name","Char","",,"","Synonym Qualifier","Name of the analyte or specimen characteristic. Note any test normally performed by a clinical laboratory is considered a lab test. The value in PCTEST cannot be longer than 40 characters. Examples: Acetylsalicylic Acid, Volume, Specific Gravity.","Req"
"SDTMIG v3.2","10","Findings","PC","PCCAT","Test Category","Char","",,"","Grouping Qualifier","Used to define a category of related records. Examples: ANALYTE, SPECIMEN PROPERTY.","Perm"
"SDTMIG v3.2","11","Findings","PC","PCSCAT","Test Subcategory","Char","",,"","Grouping Qualifier","A further categorization of a test category.","Perm"
"SDTMIG v3.2","12","Findings","PC","PCORRES","Result or Finding in Original Units","Char","",,"","Result Qualifier","Result of the measurement or finding as originally received or collected.","Exp"
"SDTMIG v3.2","13","Findings","PC","PCORRESU","Original Units","Char","C71620",,"","Variable Qualifier","Original units in which the data were collected. The unit for PCORRES. Example: mg/L.","Exp"
"SDTMIG v3.2","14","Findings","PC","PCSTRESC","Character Result/Finding in Standard Format","Char","",,"","Result Qualifier","Contains the result value for all findings, copied or derived from PCORRES in a standard format or standard units. PCSTRESC should store all results or findings in character format; if results are numeric, they should also be stored in numeric format in PCSTRESN. For example, if a test has results ""NONE"", ""NEG"", and ""NEGATIVE"" in PCORRES and these results effectively have the same meaning, they could be represented in standard format in PCSTRESC as ""NEGATIVE"". For other examples, see general assumptions.","Exp"
"SDTMIG v3.2","15","Findings","PC","PCSTRESN","Numeric Result/Finding in Standard Units","Num","",,"","Result Qualifier","Used for continuous or numeric results or findings in standard format; copied in numeric format from PCSTRESC. PCSTRESN should store all numeric test results or findings.","Exp"
"SDTMIG v3.2","16","Findings","PC","PCSTRESU","Standard Units","Char","C71620",,"","Variable Qualifier","Standardized unit used for PCSTRESC and PCSTRESN.","Exp"
"SDTMIG v3.2","17","Findings","PC","PCSTAT","Completion Status","Char","C66789",,"","Record Qualifier","Used to indicate a result was not obtained. Should be null if a result exists in PCORRES.","Perm"
"SDTMIG v3.2","18","Findings","PC","PCREASND","Reason Test Not Done","Char","",,"","Record Qualifier","Describes why a result was not obtained such as SPECIMEN LOST. Used in conjunction with PCSTAT when value is NOT DONE.","Perm"
"SDTMIG v3.2","19","Findings","PC","PCNAM","Vendor Name","Char","",,"","Record Qualifier","Name or identifier of the laboratory or vendor who provides the test results.","Exp"
"SDTMIG v3.2","20","Findings","PC","PCSPEC","Specimen Material Type","Char","C78734",,"","Record Qualifier","Defines the type of specimen used for a measurement. Examples: SERUM, PLASMA, URINE.","Exp"
"SDTMIG v3.2","21","Findings","PC","PCSPCCND","Specimen Condition","Char","C78733",,"","Record Qualifier","Free or standardized text describing the condition of the specimen e.g. HEMOLYZED, ICTERIC, LIPEMIC etc.","Perm"
"SDTMIG v3.2","22","Findings","PC","PCMETHOD","Method of Test or Examination","Char","C85492",,"","Record Qualifier","Method of the test or examination. Examples include HPLC/MS, ELISA. This should contain sufficient information and granularity to allow differentiation of various methods that might have been used within a study.","Perm"
"SDTMIG v3.2","23","Findings","PC","PCFAST","Fasting Status","Char","C66742",,"","Record Qualifier","Indicator used to identify fasting status.","Perm"
"SDTMIG v3.2","24","Findings","PC","PCDRVFL","Derived Flag","Char","C66742",,"","Record Qualifier","Used to indicate a derived record. The value should be Y or null. Records that represent the average of other records, which do not come from the CRF, are examples of records that would be derived for the submission datasets. If PCDRVFL=Y, then PCORRES may be null with PCSTRESC, and (if numeric) PCSTRESN having the derived value.","Perm"
"SDTMIG v3.2","25","Findings","PC","PCLLOQ","Lower Limit of Quantitation","Num","",,"","Variable Qualifier","Indicates the lower limit of quantitation for an assay. Units should be those used in PCSTRESU.","Exp"
"SDTMIG v3.2","26","Findings","PC","PCULOQ","Upper Limit of Quantitation","Num","",,"","Variable Qualifier","Indicates the upper limit of quantitation for an assay. Units should be those used in PCSTRESU.","Perm"
"SDTMIG v3.2","27","Findings","PC","VISITNUM","Visit Number","Num","",,"","Timing","1. Clinical encounter number. 2. Numeric version of VISIT, used for sorting.","Exp"
"SDTMIG v3.2","28","Findings","PC","VISIT","Visit Name","Char","",,"","Timing","1. Protocol-defined description of clinical encounter 2. May be used in addition to VISITNUM and/or VISITDY","Perm"
"SDTMIG v3.2","29","Findings","PC","VISITDY","Planned Study Day of Visit","Num","",,"","Timing","Planned study day of the visit based upon RFSTDTC in Demographics.","Perm"
"SDTMIG v3.2","30","Findings","PC","PCDTC","Date/Time of Specimen Collection","Char","","ISO 8601","","Timing","Date/time of specimen collection represented in ISO 8601 character format. If there is no end time, then this will be the collection time.","Exp"
"SDTMIG v3.2","31","Findings","PC","PCENDTC","End Date/Time of Specimen Collection","Char","","ISO 8601","","Timing","End date/time of specimen collection represented in ISO 8601 character format. If there is no end time, the collection time should be stored in PCDTC, and PCENDTC should be null.","Perm"
"SDTMIG v3.2","32","Findings","PC","PCDY","Actual Study Day of Specimen Collection","Num","",,"","Timing","1. Study day of specimen collection, measured as integer days. 2. Algorithm for calculations must be relative to the sponsor-defined RFSTDTC variable in Demographics.","Perm"
"SDTMIG v3.2","33","Findings","PC","PCTPT","Planned Time Point Name","Char","",,"","Timing","1. Text Description of time when specimen should be taken. 2. This may be represented as an elapsed time relative to a fixed reference point, such as time of last dose. See PCTPTNUM and PCTPTREF. Examples: Start, 5 min post.","Perm"
"SDTMIG v3.2","34","Findings","PC","PCTPTNUM","Planned Time Point Number","Num","",,"","Timing","Numerical version of PCTPT to aid in sorting.","Perm"
"SDTMIG v3.2","35","Findings","PC","PCELTM","Planned Elapsed Time from Time Point Ref","Char","","ISO 8601","","Timing","Planned elapsed time (in ISO 8601) relative to a planned fixed reference (PCTPTREF) such as ""PREVIOUS DOSE"" or ""PREVIOUS MEAL"". This variable is useful where there are repetitive measures. Not a clock time or a date time variable.","Perm"
"SDTMIG v3.2","36","Findings","PC","PCTPTREF","Time Point Reference","Char","",,"","Timing","Name of the fixed reference point used as a basis for PCTPT, PCTPTNUM, and PCELTM. Example: Most Recent Dose.","Perm"
"SDTMIG v3.2","37","Findings","PC","PCRFTDTC","Date/Time of Reference Point","Char","","ISO 8601","","Timing","Date/time of the reference time point described by PCTPTREF.","Perm"
"SDTMIG v3.2","38","Findings","PC","PCEVLINT","Evaluation Interval","Char","","ISO 8601","","Timing","Evaluation Interval associated with a PCTEST record represented in ISO 8601 character format. Example: ""-P2H"" to represent an interval of 2 hours prior to a PCTPT.","Perm"
"SDTMIG v3.2","1","Findings","PP","STUDYID","Study Identifier","Char","",,"","Identifier","Unique identifier for a study.","Req"
"SDTMIG v3.2","2","Findings","PP","DOMAIN","Domain Abbreviation","Char","",,"PP","Identifier","Two-character abbreviation for the domain.","Req"
"SDTMIG v3.2","3","Findings","PP","USUBJID","Unique Subject Identifier","Char","",,"","Identifier","Unique subject identifier within the submission.","Req"
"SDTMIG v3.2","4","Findings","PP","PPSEQ","Sequence Number","Num","",,"","Identifier","Sequence Number given to ensure uniqueness of subject records within a domain. May be any valid number.","Req"
"SDTMIG v3.2","5","Findings","PP","PPGRPID","Group ID","Char","",,"","Identifier","Used to tie together a block of related records in a single domain to support relationships within the domain and between domains.","Perm"
"SDTMIG v3.2","6","Findings","PP","PPTESTCD","Parameter Short Name","Char","C85839",,"","Topic","Short name of the pharmacokinetic parameter. It can be used as a column name when converting a dataset from a vertical to a horizontal format. The value in PPTESTCD cannot be longer than 8 characters, nor can it start with a number (e.g., ""1TEST""). PPTESTCD cannot contain characters other than letters, numbers, or underscores. Examples: AUCALL, TMAX, CMAX.","Req"
"SDTMIG v3.2","7","Findings","PP","PPTEST","Parameter Name","Char","C85493",,"","Synonym Qualifier","Name of the pharmacokinetic parameter. The value in PPTEST cannot be longer than 40 characters. Examples: AUC All, Time of CMAX, Max Conc.","Req"
"SDTMIG v3.2","8","Findings","PP","PPCAT","Parameter Category","Char","",,"","Grouping Qualifier","Used to define a category of related records. For PP, this should be the name of the analyte in PCTEST whose profile the parameter is associated with.","Exp"
"SDTMIG v3.2","9","Findings","PP","PPSCAT","Parameter Subcategory","Char","",,"","Grouping Qualifier","Categorization of the model type used to calculate the PK parameters. Examples include COMPARTMENTAL, NON-COMPARTMENTAL.","Perm"
"SDTMIG v3.2","10","Findings","PP","PPORRES","Result or Finding in Original Units","Char","",,"","Result Qualifier","Result of the measurement or finding as originally received or collected.","Exp"
"SDTMIG v3.2","11","Findings","PP","PPORRESU","Original Units","Char","C85494",,"","Variable Qualifier","Original units in which the data were collected. The unit for PPORRES. Example: ng/L.","Exp"
"SDTMIG v3.2","12","Findings","PP","PPSTRESC","Character Result/Finding in Standard Format","Char","",,"","Result Qualifier","Contains the result value for all findings, copied or derived from PPORRES in a standard format or standard units. PPSTRESC should store all results or findings in character format; if results are numeric, they should also be stored in numeric format in PPSTRESN.","Exp"
"SDTMIG v3.2","13","Findings","PP","PPSTRESN","Numeric Result/Finding in Standard Units","Num","",,"","Result Qualifier","Used for continuous or numeric results or findings in standard format; copied in numeric format from PPSTRESC. PPSTRESN should store all numeric test results or findings.","Exp"
"SDTMIG v3.2","14","Findings","PP","PPSTRESU","Standard Units","Char","C85494",,"","Variable Qualifier","Standardized unit used for PPSTRESC and PPSTRESN.","Exp"
"SDTMIG v3.2","15","Findings","PP","PPSTAT","Completion Status","Char","C66789",,"","Record Qualifier","Used to indicate that a parameter was not calculated. Should be null if a result exists in PPORRES.","Perm"
"SDTMIG v3.2","16","Findings","PP","PPREASND","Reason Parameter Not Calculated","Char","",,"","Record Qualifier","Describes why a parameter was not calculated, such as INSUFFICIENT DATA. Used in conjunction with PPSTAT when value is NOT DONE.","Perm"
"SDTMIG v3.2","17","Findings","PP","PPSPEC","Specimen Material Type","Char","C78734",,"","Record Qualifier","Defines the type of specimen used for a measurement. If multiple specimen types are used for a calculation (e.g., serum and urine for renal clearance), then this field should be left blank. Examples: SERUM, PLASMA, URINE.","Exp"
"SDTMIG v3.2","18","Findings","PP","PPDTC","Date/Time of Parameter Calculations","Char","","ISO 8601","","Timing","Nominal date/time of parameter calculations.","Perm"
"SDTMIG v3.2","19","Findings","PP","PPRFTDTC","Date/Time of Reference Point","Char","","ISO 8601","","Timing","Date/time of the reference time point from the PC records used to calculate a parameter record. The values in PPRFTDTC should be the same as that in PCRFTDTC for related records.","Exp"
"SDTMIG v3.2","20","Findings","PP","PPSTINT","Planned Start of Assessment Interval","Char","","ISO 8601","","Timing","The start of a planned evaluation or assessment interval relative to the Time Point Reference.","Perm"
"SDTMIG v3.2","21","Findings","PP","PPENINT","Planned End of Assessment Interval","Char","","ISO 8601","","Timing","The end of a planned evaluation or assessment interval relative to the Time Point Reference.","Perm"
"SDTMIG v3.2","1","Findings","PE","STUDYID","Study Identifier","Char","",,"","Identifier","Unique identifier for a study.","Req"
"SDTMIG v3.2","2","Findings","PE","DOMAIN","Domain Abbreviation","Char","",,"PE","Identifier","Two-character abbreviation for the domain.","Req"
"SDTMIG v3.2","3","Findings","PE","USUBJID","Unique Subject Identifier","Char","",,"","Identifier","Identifier used to uniquely identify a subject across all studies for all applications or submissions involving the product.","Req"
"SDTMIG v3.2","4","Findings","PE","PESEQ","Sequence Number","Num","",,"","Identifier","Sequence Number given to ensure uniqueness of subject records within a domain. May be any valid number.","Req"
"SDTMIG v3.2","5","Findings","PE","PEGRPID","Group ID","Char","",,"","Identifier","Used to tie together a block of related records in a single domain for a subject.","Perm"
"SDTMIG v3.2","6","Findings","PE","PESPID","Sponsor-Defined Identifier","Char","",,"","Identifier","Sponsor-defined reference number. Perhaps pre-printed on the CRF as an explicit line identifier or defined in the sponsor's operational database. Example: Line number on a CRF.","Perm"
"SDTMIG v3.2","7","Findings","PE","PETESTCD","Body System Examined Short Name","Char","",,"","Topic","Short name of the measurement, test, or examination described in PETEST. It can be used as a column name when converting a dataset from a vertical to a horizontal format. The value in PETESTCD cannot be longer than 8 characters, nor can it start with a number (e.g.""1TEST""). PETESTCD cannot contain characters other than letters, numbers, or underscores.","Req"
"SDTMIG v3.2","8","Findings","PE","PETEST","Body System Examined","Char","",,"","Synonym Qualifier","Verbatim term part of the body examined. The value in PETEST cannot be longer than 40 characters. Examples: Cardiovascular and Respiratory. For subject-level exam, value should be ""Physical Examination"".","Req"
"SDTMIG v3.2","9","Findings","PE","PEMODIFY","Modified Reported Term","Char","",,"","Synonym Qualifier","If PEORRES is modified as part of a defined procedure, then PEMODIFY will contain the modified text.","Perm"
"SDTMIG v3.2","10","Findings","PE","PECAT","Category for Examination","Char","",,"","Grouping Qualifier","Used to define a category of examination. Examples: GENERAL, NEUROLOGICAL.","Perm"
"SDTMIG v3.2","11","Findings","PE","PESCAT","Subcategory for Examination","Char","",,"","Grouping Qualifier","A further categorization of the examination. Used if needed to add further detail to PECAT.","Perm"
"SDTMIG v3.2","12","Findings","PE","PEBODSYS","Body System or Organ Class","Char","",,"","Result Qualifier","Body system or organ class ( MedDRA SOC) that is involved in a measurement from the standard hierarchy (e.g., MedDRA).","Perm"
"SDTMIG v3.2","13","Findings","PE","PEORRES","Verbatim Examination Finding","Char","",,"","Result Qualifier","Text description of any abnormal findings. If the examination was completed and there were no abnormal findings, the value should be NORMAL. If the examination was not performed on a particular body system, or at the subject level, then the value should be null, and NOT DONE should appear in PESTAT.","Exp"
"SDTMIG v3.2","14","Findings","PE","PEORRESU","Original Units","Char","C71620",,"","Variable Qualifier","Original units in which the data were collected. The unit for PEORRES.","Perm"
"SDTMIG v3.2","15","Findings","PE","PESTRESC","Character Result/Finding in Standard Format","Char","",,"","Result Qualifier","If there are findings for a body system, then either the dictionary preferred term (if findings are coded using a dictionary) or PEORRES (if findings are not coded) should appear here. If PEORRES is null, PESTRESC should be null","Exp"
"SDTMIG v3.2","16","Findings","PE","PESTAT","Completion Status","Char","C66789",,"","Record Qualifier","Used to indicate exam not done. Should be null if a result exists in PEORRES.","Perm"
"SDTMIG v3.2","17","Findings","PE","PEREASND","Reason Not Examined","Char","",,"","Record Qualifier","Describes why an examination was not performed or why a body system was not examined. Example: SUBJECT REFUSED. Used in conjunction with STAT when value is NOT DONE.","Perm"
"SDTMIG v3.2","18","Findings","PE","PELOC","Location of Physical Exam Finding","Char","C74456",,"","Record Qualifier","Can be used to specify where a physical exam finding occurred. Example: ARM for skin rash.","Perm"
"SDTMIG v3.2","19","Findings","PE","PEMETHOD","Method of Test or Examination","Char","C85492",,"","Record Qualifier","Method of the test or examination. Examples: XRAY, MRI.","Perm"
"SDTMIG v3.2","20","Findings","PE","PEEVAL","Evaluator","Char","C78735",,"","Record Qualifier","Role of the person who provided the evaluation. Used only for results that are subjective (e.g., assigned by a person or a group). Should be null for records that contain collected or derived data. Examples: INVESTIGATOR, ADJUDICATION COMMITTEE.","Perm"
"SDTMIG v3.2","21","Findings","PE","VISITNUM","Visit Number","Num","",,"","Timing","1. Clinical encounter number. 2. Numeric version of VISIT, used for sorting.","Exp"
"SDTMIG v3.2","22","Findings","PE","VISIT","Visit Name","Char","",,"","Timing","1. Protocol-defined description of clinical encounter. 2. May be used in addition to VISITNUM and/or VISITDY.","Perm"
"SDTMIG v3.2","23","Findings","PE","VISITDY","Planned Study Day of Visit","Num","",,"","Timing","Planned study day of the visit based upon RFSTDTC in Demographics.","Perm"
"SDTMIG v3.2","24","Findings","PE","PEDTC","Date/Time of Examination","Char","","ISO 8601","","Timing",,"Exp"
"SDTMIG v3.2","25","Findings","PE","PEDY","Study Day of Examination","Num","",,"","Timing","1. Study day of physical exam, measured as integer days. 2. Algorithm for calculations must be relative to the sponsor-defined RFSTDTC variable in Demographics.","Perm"
"SDTMIG v3.2","1","Findings","QS","STUDYID","Study Identifier","Char","",,"","Identifier","Unique identifier for a study.","Req"
"SDTMIG v3.2","2","Findings","QS","DOMAIN","Domain Abbreviation","Char","",,"QS","Identifier","Two-character abbreviation for the domain.","Req"
"SDTMIG v3.2","3","Findings","QS","USUBJID","Unique Subject Identifier","Char","",,"","Identifier","Identifier used to uniquely identify a subject across all studies for all applications or submissions involving the product.","Req"
"SDTMIG v3.2","4","Findings","QS","QSSEQ","Sequence Number","Num","",,"","Identifier","Sequence Number given to ensure uniqueness of subject records within a domain. May be any valid number.","Req"
"SDTMIG v3.2","5","Findings","QS","QSGRPID","Group ID","Char","",,"","Identifier","Used to tie together a block of related records in a single domain for a subject.","Perm"
"SDTMIG v3.2","6","Findings","QS","QSSPID","Sponsor-Defined Identifier","Char","",,"","Identifier","Sponsor-defined reference number. Perhaps pre-printed on the CRF as an explicit line identifier or defined in the sponsor's operational database. Example: Question number on a questionnaire.","Perm"
"SDTMIG v3.2","7","Findings","QS","QSTESTCD","Question Short Name","Char","",,"","Topic","Topic variable for QS. Short name for the value in QSTEST, which can be used as a column name when converting the dataset from a vertical format to a horizontal format. The value in QSTESTCD cannot be longer than 8 characters, nor can it start with a number (e.g.""1TEST""). QSTESTCD cannot contain characters other than letters, numbers, or underscores. See QS Terminology Spreadsheet for specific text for QSTESTCD. Examples: ADCCMD01, BPR0103","Req"
"SDTMIG v3.2","8","Findings","QS","QSTEST","Question Name","Char","",,"","Synonym Qualifier","Verbatim name of the question or group of questions used to obtain the measurement or finding. The value in QSTEST cannot be longer than 40 characters. See QS Terminology Spreadsheet for specific text for QSTEST. Example: Fist, BPR01 - Emotional Withdrawal","Req"
"SDTMIG v3.2","9","Findings","QS","QSCAT","Category of Question","Char","C100129",,"","Grouping Qualifier","Used to define a category of related records that will be meaningful to the Reviewer. See QS Terminology Spreadsheet for specific text for QSCAT. Examples: ADAS-COG, MDS-UPDRS.","Req"
"SDTMIG v3.2","10","Findings","QS","QSSCAT","Subcategory for Question","Char","",,"","Grouping Qualifier","A further categorization of the questions within the category. Examples: MENTAL HEALTH DOMAIN, DEPRESSION DOMAIN, WORD RECALL.","Perm"
"SDTMIG v3.2","11","Findings","QS","QSORRES","Finding in Original Units","Char","",,"","Result Qualifier","Finding as originally received or collected (e.g. RARELY, SOMETIMES). When sponsors apply codelist to indicate the code values are statistically meaningful standardized scores, which are defined by sponsors or by valid methodologies such as SF36 questionnaires, QSORRES will contain the decode format, and QSSTRESC and QSSTRESN may contain the standardized code values or scores.","Exp"
"SDTMIG v3.2","12","Findings","QS","QSORRESU","Original Units","Char","C71620",,"","Variable Qualifier","Original units in which the data were collected. The unit for QSORRES, such as minutes or seconds or the units associated with a visual analog scale.","Perm"
"SDTMIG v3.2","13","Findings","QS","QSSTRESC","Character Result/Finding in Standard Format","Char","",,"","Result Qualifier","Contains the finding for all questions or sub-scores, copied or derived from QSORRES in a standard format or standard units. QSSTRESC should store all findings in character format; if findings are numeric, they should also be stored in numeric format in QSSTRESN. If question scores are derived from the original finding, then the standard format is the score. Examples: 0, 1. When sponsors apply codelist to indicate the code values are statistically meaningful standardized scores, which are defined by sponsors or by valid methodologies such as SF36 questionnaires, QSORRES will contain the decode format, and QSSTRESC and QSSTRESN may contain the standardized code values or scores.","Exp"
"SDTMIG v3.2","14","Findings","QS","QSSTRESN","Numeric Finding in Standard Units","Num","",,"","Result Qualifier","Used for continuous or numeric findings in standard format; copied in numeric format from QSSTRESC. QSSTRESN should store all numeric results or findings.","Perm"
"SDTMIG v3.2","15","Findings","QS","QSSTRESU","Standard Units","Char","C71620",,"","Variable Qualifier","Standardized unit used for QSSTRESC or QSSTRESN.","Perm"
"SDTMIG v3.2","16","Findings","QS","QSSTAT","Completion Status","Char","C66789",,"","Record Qualifier","Used to indicate a questionnaire or response to a questionnaire was not done. Should be null if a result exists in QSORRES.","Perm"
"SDTMIG v3.2","17","Findings","QS","QSREASND","Reason Not Performed","Char","",,"","Record Qualifier","Describes why a question was not answered. Used in conjunction with QSSTAT when value is NOT DONE. Example: SUBJECT REFUSED.","Perm"
"SDTMIG v3.2","18","Findings","QS","QSBLFL","Baseline Flag","Char","C66742",,"","Record Qualifier","Indicator used to identify a baseline value. The value should be ""Y"" or null.","Exp"
"SDTMIG v3.2","19","Findings","QS","QSDRVFL","Derived Flag","Char","C66742",,"","Record Qualifier","Used to indicate a derived record. The value should be Y or null. Records that represent the average of other records or questionnaire sub-scores that do not come from the CRF are examples of records that would be derived for the submission datasets. If QSDRVFL=Y, then QSORRES may be null with QSSTRESC and (if numeric) QSSTRESN having the derived value.","Perm"
"SDTMIG v3.2","20","Findings","QS","QSEVAL","Evaluator","Char","C78735",,"","Record Qualifier","Role of the person who provided the evaluation.  Examples:  STUDY SUBJECT, CAREGIVER, INVESTIGATOR.","Perm"
"SDTMIG v3.2","21","Findings","QS","VISITNUM","Visit Number","Num","",,"","Timing","1. Clinical encounter number. 2. Numeric version of VISIT, used for sorting.","Exp"
"SDTMIG v3.2","22","Findings","QS","VISIT","Visit Name","Char","",,"","Timing","1. Protocol-defined description of clinical encounter.  2. May be used in addition to VISITNUM and/or VISITDY.","Perm"
"SDTMIG v3.2","23","Findings","QS","VISITDY","Planned Study Day of Visit","Num","",,"","Timing","Planned study day of the visit based upon RFSTDTC in Demographics.","Perm"
"SDTMIG v3.2","24","Findings","QS","QSDTC","Date/Time of Finding","Char","","ISO 8601","","Timing","Date of questionnaire.","Exp"
"SDTMIG v3.2","25","Findings","QS","QSDY","Study Day of Finding","Num","",,"","Timing","1. Study day of finding collection, measured as integer days. 2. Algorithm for calculations must be relative to the sponsor-defined RFSTDTC variable in Demographics.","Perm"
"SDTMIG v3.2","26","Findings","QS","QSTPT","Planned Time Point Name","Char","",,"","Timing","1. Text Description of time when questionnaire should be administered. 2. This may be represented as an elapsed time relative to a fixed reference point, such as time of last dose. See QSTPTNUM and QSTPTREF.","Perm"
"SDTMIG v3.2","27","Findings","QS","QSTPTNUM","Planned Time Point Number","Num","",,"","Timing","Numerical version of QSTPT to aid in sorting.","Perm"
"SDTMIG v3.2","28","Findings","QS","QSELTM","Planned Elapsed Time from Time Point Ref","Char","","ISO 8601","","Timing","Planned Elapsed time (in ISO 8601) relative to a planned fixed reference (QSTPTREF). This variable is useful where there are repetitive measures. Not a clock time or a date time variable. Represented as an ISO 8601 duration. Examples: ""-PT15M"" to represent the period of 15 minutes prior to the reference point indicated by QSTPTREF, or ""PT8H"" to represent the period of 8 hours after the reference point indicated by QSTPTREF.","Perm"
"SDTMIG v3.2","29","Findings","QS","QSTPTREF","Time Point Reference","Char","",,"","Timing","Name of the fixed reference point referred to by QSELTM, QSTPTNUM, and QSTPT. Examples: PREVIOUS DOSE, PREVIOUS MEAL.","Perm"
"SDTMIG v3.2","30","Findings","QS","QSRFTDTC","Date/Time of Reference Time Point","Char","","ISO 8601","","Timing","Date/time of the reference time point, LBTPTREF.","Perm"
"SDTMIG v3.2","31","Findings","QS","QSEVLINT","Evaluation Interval","Char","","ISO 8601","","Timing","Evaluation Interval associated with a QSTEST question represented in ISO 8601 character format. Example: ""-P2Y"" to represent an interval of 2 years in the question ""Have you experienced any episodes in the past 2 years?""","Perm"
"SDTMIG v3.2","1","Findings","RP","STUDYID","Study Identifier","Char","",,"","Identifier","Unique identifier for a study.","Req"
"SDTMIG v3.2","2","Findings","RP","DOMAIN","Domain Abbreviation","Char","",,"RP","Identifier","Two-character abbreviation for the domain.","Req"
"SDTMIG v3.2","3","Findings","RP","USUBJID","Unique Subject Identifier","Char","",,"","Identifier","Identifier used to uniquely identify a subject across all studies for all applications or submissions involving the product.","Req"
"SDTMIG v3.2","4","Findings","RP","RPSEQ","Sequence Number","Num","",,"","Identifier","Sequence Number given to ensure uniqueness of subject records within a domain. May be any valid number.","Req"
"SDTMIG v3.2","5","Findings","RP","RPGRPID","Group ID","Char","",,"","Identifier","Used to tie together a block of related records in a single domain for a subject.","Perm"
"SDTMIG v3.2","6","Findings","RP","RPREFID","Reference ID","Char","",,"","Identifier","Internal or external Reproductive System Findings record identifier.","Perm"
"SDTMIG v3.2","7","Findings","RP","RPSPID","Sponsor-Defined Identifier","Char","",,"","Identifier","Sponsor-defined identifier. Perhaps pre-printed on the CRF as an explicit line identifier or defined in the sponsor's operational database.","Perm"
"SDTMIG v3.2","8","Findings","RP","RPTESTCD","Repro System Findings Test Short Name","Char","C106479",,"","Topic","Short name of the measurement, test, or examination described in RPTEST. It can be used as a column name when converting a dataset from a vertical to a horizontal format. The value in RPTESTCD cannot be longer than 8 characters, nor can it start with a number (e.g.""1TEST""). RPTESTCD cannot contain characters other than letters, numbers, or underscores. Examples: NUMLIV, NUMPREG, BCMETHOD, etc.","Req"
"SDTMIG v3.2","9","Findings","RP","RPTEST","Reproductive System Findings Test Name","Char","C106478",,"","Synonym Qualifier","Verbatim name of the test or examination used to obtain the measurement or finding. The value in RPTEST cannot be longer than 40 characters. Examples: Number of Live Births, Number of Pregnancies, Birth Control Method, etc.","Req"
"SDTMIG v3.2","10","Findings","RP","RPCAT","Category for Repro System Findings","Char","",,"","Grouping Qualifier","Used to define a category of related records.","Perm"
"SDTMIG v3.2","11","Findings","RP","RPSCAT","Subcategory for Repro System Findings","Char","",,"","Grouping Qualifier","A further categorization of RP records.","Perm"
"SDTMIG v3.2","12","Findings","RP","RPORRES","Result or Finding in Original Units","Char","",,"","Result Qualifier","Result of the Reproductive System Findings test as originally received or collected.","Exp"
"SDTMIG v3.2","13","Findings","RP","RPORRESU","Original Units","Char","C71620",,"","Variable Qualifier","Original units in which the data were collected. The unit for RPORRES. Examples: YEARS.","Exp"
